
 ------------------------------------------------------------
     normal          Raman Scattering Plot
 ------------------------------------------------------------
 Excitation wavelength  514.50 nm
 Convolution lineshape is lorentzian  
 FWHM   20.00  1/cm
 ------------------------------------------------------------
 ------------------------------------------------------------
 # of frequencies :    36
 ------------------------------------------------------------
 #  freq [ 1/cm]  S [Ang**4/amu]
 ------------------------------------------------------------
   1    45.94        6.3018
   2    91.28        3.0618
   3    91.38        2.6284
   4   158.61        0.0012
   5   159.50        0.0041
   6   241.99        1.4519
   7   243.00        1.6205
   8   316.69       13.1137
   9   325.54        0.0084
  10   326.69        1.2418
  11   436.15        0.8581
  12   436.58        1.0303
  13   505.53        0.0408
  14   505.67        0.1212
  15   572.91        2.6022
  16   573.20        2.8030
  17   621.88        0.0559
  18   623.89        0.0105
  19   630.99        0.0043
  20   652.82        0.0271
  21   652.83        0.0444
  22   672.09        0.6550
  23   675.70        0.0291
  24   694.55       64.6681
  25   694.56       63.9340
  26   926.30       17.8236
  27  1201.10        0.8945
  28  1439.80       17.2882
  29  1964.87        0.1321
  30  2025.08    10161.5499
  31  2055.86    17899.5585
  32  2115.80        0.6840
  33  2176.49        1.6163
  34  2179.86     1280.0129
  35  3434.72        0.4719
  36  3440.23       17.7917
 ------------------------------------------------------------
   -10.54    0.6065E-01
    -7.03    0.6832E-01
    -3.51    0.7755E-01
     0.01    0.8883E-01
     3.53    0.1028    
     7.04    0.1203    
    10.56    0.1427    
    14.08    0.1720    
    17.60    0.2110    
    21.12    0.2646    
    24.63    0.3401    
    28.15    0.4500    
    31.67    0.6139    
    35.19    0.8606    
    38.70     1.214    
    42.22     1.621    
    45.74     1.844    
    49.26     1.667    
    52.78     1.272    
    56.29    0.9150    
    59.81    0.6661    
    63.33    0.5057    
    66.85    0.4058    
    70.37    0.3476    
    73.88    0.3212    
    77.40    0.3240    
    80.92    0.3584    
    84.44    0.4265    
    87.95    0.5095    
    91.47    0.5423    
    94.99    0.4772    
    98.51    0.3666    
   102.03    0.2707    
   105.54    0.2026    
   109.06    0.1563    
   112.58    0.1245    
   116.10    0.1018    
   119.61    0.8526E-01
   123.13    0.7275E-01
   126.65    0.6306E-01
   130.17    0.5538E-01
   133.69    0.4918E-01
   137.20    0.4409E-01
   140.72    0.3985E-01
   144.24    0.3629E-01
   147.76    0.3327E-01
   151.27    0.3069E-01
   154.79    0.2847E-01
   158.31    0.2653E-01
   161.83    0.2481E-01
   165.35    0.2328E-01
   168.86    0.2192E-01
   172.38    0.2074E-01
   175.90    0.1971E-01
   179.42    0.1882E-01
   182.93    0.1804E-01
   186.45    0.1738E-01
   189.97    0.1684E-01
   193.49    0.1640E-01
   197.01    0.1608E-01
   200.52    0.1589E-01
   204.04    0.1584E-01
   207.56    0.1597E-01
   211.08    0.1632E-01
   214.60    0.1698E-01
   218.11    0.1806E-01
   221.63    0.1977E-01
   225.15    0.2244E-01
   228.67    0.2659E-01
   232.18    0.3298E-01
   235.70    0.4210E-01
   239.22    0.5213E-01
   242.74    0.5658E-01
   246.26    0.5100E-01
   249.77    0.4080E-01
   253.29    0.3199E-01
   256.81    0.2594E-01
   260.33    0.2207E-01
   263.84    0.1968E-01
   267.36    0.1829E-01
   270.88    0.1762E-01
   274.40    0.1752E-01
   277.92    0.1794E-01
   281.43    0.1892E-01
   284.95    0.2053E-01
   288.47    0.2298E-01
   291.99    0.2658E-01
   295.50    0.3190E-01
   299.02    0.3983E-01
   302.54    0.5185E-01
   306.06    0.7010E-01
   309.58    0.9628E-01
   313.09    0.1264    
   316.61    0.1431    
   320.13    0.1315    
   323.65    0.1049    
   327.16    0.7982E-01
   330.68    0.5981E-01
   334.20    0.4490E-01
   337.72    0.3445E-01
   341.24    0.2726E-01
   344.75    0.2224E-01
   348.27    0.1864E-01
   351.79    0.1599E-01
   355.31    0.1398E-01
   358.83    0.1243E-01
   362.34    0.1121E-01
   365.86    0.1023E-01
   369.38    0.9440E-02
   372.90    0.8791E-02
   376.41    0.8257E-02
   379.93    0.7816E-02
   383.45    0.7452E-02
   386.97    0.7155E-02
   390.49    0.6917E-02
   394.00    0.6736E-02
   397.52    0.6610E-02
   401.04    0.6544E-02
   404.56    0.6546E-02
   408.07    0.6633E-02
   411.59    0.6832E-02
   415.11    0.7191E-02
   418.63    0.7788E-02
   422.15    0.8753E-02
   425.66    0.1027E-01
   429.18    0.1250E-01
   432.70    0.1507E-01
   436.22    0.1643E-01
   439.73    0.1517E-01
   443.25    0.1249E-01
   446.77    0.1008E-01
   450.29    0.8363E-02
   453.81    0.7218E-02
   457.32    0.6450E-02
   460.84    0.5924E-02
   464.36    0.5555E-02
   467.88    0.5291E-02
   471.40    0.5102E-02
   474.91    0.4967E-02
   478.43    0.4876E-02
   481.95    0.4823E-02
   485.47    0.4804E-02
   488.98    0.4824E-02
   492.50    0.4891E-02
   496.02    0.5015E-02
   499.54    0.5202E-02
   503.06    0.5403E-02
   506.57    0.5489E-02
   510.09    0.5414E-02
   513.61    0.5301E-02
   517.13    0.5243E-02
   520.64    0.5256E-02
   524.16    0.5331E-02
   527.68    0.5462E-02
   531.20    0.5650E-02
   534.72    0.5901E-02
   538.23    0.6231E-02
   541.75    0.6666E-02
   545.27    0.7245E-02
   548.79    0.8033E-02
   552.30    0.9137E-02
   555.82    0.1073E-01
   559.34    0.1308E-01
   562.86    0.1658E-01
   566.38    0.2147E-01
   569.89    0.2677E-01
   573.41    0.2905E-01
   576.93    0.2616E-01
   580.45    0.2106E-01
   583.96    0.1676E-01
   587.48    0.1385E-01
   591.00    0.1203E-01
   594.52    0.1093E-01
   598.04    0.1029E-01
   601.55    0.9980E-02
   605.07    0.9899E-02
   608.59    0.1000E-01
   612.11    0.1027E-01
   615.63    0.1067E-01
   619.14    0.1122E-01
   622.66    0.1186E-01
   626.18    0.1259E-01
   629.70    0.1346E-01
   633.21    0.1454E-01
   636.73    0.1586E-01
   640.25    0.1750E-01
   643.77    0.1951E-01
   647.29    0.2201E-01
   650.80    0.2511E-01
   654.32    0.2897E-01
   657.84    0.3390E-01
   661.36    0.4035E-01
   664.87    0.4901E-01
   668.39    0.6074E-01
   671.91    0.7673E-01
   675.43    0.9916E-01
   678.95    0.1322    
   682.46    0.1825    
   685.98    0.2571    
   689.50    0.3537    
   693.02    0.4330    
   696.53    0.4263    
   700.05    0.3405    
   703.57    0.2453    
   707.09    0.1736    
   710.61    0.1255    
   714.12    0.9352E-01
   717.64    0.7189E-01
   721.16    0.5683E-01
   724.68    0.4602E-01
   728.19    0.3805E-01
   731.71    0.3203E-01
   735.23    0.2739E-01
   738.75    0.2373E-01
   742.27    0.2081E-01
   745.78    0.1844E-01
   749.30    0.1650E-01
   752.82    0.1488E-01
   756.34    0.1352E-01
   759.86    0.1238E-01
   763.37    0.1140E-01
   766.89    0.1055E-01
   770.41    0.9822E-02
   773.93    0.9187E-02
   777.44    0.8631E-02
   780.96    0.8143E-02
   784.48    0.7711E-02
   788.00    0.7329E-02
   791.52    0.6990E-02
   795.03    0.6688E-02
   798.55    0.6418E-02
   802.07    0.6177E-02
   805.59    0.5961E-02
   809.10    0.5768E-02
   812.62    0.5595E-02
   816.14    0.5441E-02
   819.66    0.5304E-02
   823.18    0.5182E-02
   826.69    0.5075E-02
   830.21    0.4982E-02
   833.73    0.4903E-02
   837.25    0.4836E-02
   840.76    0.4782E-02
   844.28    0.4741E-02
   847.80    0.4713E-02
   851.32    0.4700E-02
   854.84    0.4701E-02
   858.35    0.4718E-02
   861.87    0.4755E-02
   865.39    0.4812E-02
   868.91    0.4895E-02
   872.43    0.5007E-02
   875.94    0.5157E-02
   879.46    0.5353E-02
   882.98    0.5609E-02
   886.50    0.5944E-02
   890.01    0.6385E-02
   893.53    0.6972E-02
   897.05    0.7767E-02
   900.57    0.8866E-02
   904.09    0.1042E-01
   907.60    0.1269E-01
   911.12    0.1607E-01
   914.64    0.2119E-01
   918.16    0.2871E-01
   921.67    0.3814E-01
   925.19    0.4510E-01
   928.71    0.4328E-01
   932.23    0.3455E-01
   935.75    0.2556E-01
   939.26    0.1894E-01
   942.78    0.1451E-01
   946.30    0.1156E-01
   949.82    0.9562E-02
   953.33    0.8161E-02
   956.85    0.7151E-02
   960.37    0.6403E-02
   963.89    0.5836E-02
   967.41    0.5397E-02
   970.92    0.5050E-02
   974.44    0.4773E-02
   977.96    0.4547E-02
   981.48    0.4362E-02
   984.99    0.4208E-02
   988.51    0.4079E-02
   992.03    0.3970E-02
   995.55    0.3878E-02
   999.07    0.3799E-02
  1002.58    0.3731E-02
  1006.10    0.3672E-02
  1009.62    0.3621E-02
  1013.14    0.3578E-02
  1016.66    0.3540E-02
  1020.17    0.3507E-02
  1023.69    0.3478E-02
  1027.21    0.3454E-02
  1030.73    0.3433E-02
  1034.24    0.3415E-02
  1037.76    0.3399E-02
  1041.28    0.3386E-02
  1044.80    0.3376E-02
  1048.32    0.3367E-02
  1051.83    0.3360E-02
  1055.35    0.3355E-02
  1058.87    0.3351E-02
  1062.39    0.3349E-02
  1065.90    0.3348E-02
  1069.42    0.3349E-02
  1072.94    0.3350E-02
  1076.46    0.3353E-02
  1079.98    0.3357E-02
  1083.49    0.3361E-02
  1087.01    0.3367E-02
  1090.53    0.3374E-02
  1094.05    0.3381E-02
  1097.56    0.3389E-02
  1101.08    0.3399E-02
  1104.60    0.3409E-02
  1108.12    0.3420E-02
  1111.64    0.3431E-02
  1115.15    0.3444E-02
  1118.67    0.3457E-02
  1122.19    0.3471E-02
  1125.71    0.3486E-02
  1129.23    0.3502E-02
  1132.74    0.3519E-02
  1136.26    0.3537E-02
  1139.78    0.3556E-02
  1143.30    0.3576E-02
  1146.81    0.3598E-02
  1150.33    0.3621E-02
  1153.85    0.3647E-02
  1157.37    0.3675E-02
  1160.89    0.3706E-02
  1164.40    0.3741E-02
  1167.92    0.3782E-02
  1171.44    0.3831E-02
  1174.96    0.3890E-02
  1178.47    0.3966E-02
  1181.99    0.4066E-02
  1185.51    0.4205E-02
  1189.03    0.4404E-02
  1192.55    0.4689E-02
  1196.06    0.5050E-02
  1199.58    0.5350E-02
  1203.10    0.5350E-02
  1206.62    0.5076E-02
  1210.13    0.4769E-02
  1213.65    0.4546E-02
  1217.17    0.4404E-02
  1220.69    0.4320E-02
  1224.21    0.4272E-02
  1227.72    0.4248E-02
  1231.24    0.4239E-02
  1234.76    0.4240E-02
  1238.28    0.4249E-02
  1241.79    0.4263E-02
  1245.31    0.4282E-02
  1248.83    0.4303E-02
  1252.35    0.4327E-02
  1255.87    0.4353E-02
  1259.38    0.4381E-02
  1262.90    0.4411E-02
  1266.42    0.4442E-02
  1269.94    0.4474E-02
  1273.46    0.4508E-02
  1276.97    0.4543E-02
  1280.49    0.4579E-02
  1284.01    0.4616E-02
  1287.53    0.4654E-02
  1291.04    0.4693E-02
  1294.56    0.4733E-02
  1298.08    0.4775E-02
  1301.60    0.4818E-02
  1305.12    0.4861E-02
  1308.63    0.4907E-02
  1312.15    0.4953E-02
  1315.67    0.5001E-02
  1319.19    0.5050E-02
  1322.70    0.5101E-02
  1326.22    0.5154E-02
  1329.74    0.5208E-02
  1333.26    0.5264E-02
  1336.78    0.5322E-02
  1340.29    0.5383E-02
  1343.81    0.5446E-02
  1347.33    0.5512E-02
  1350.85    0.5581E-02
  1354.36    0.5653E-02
  1357.88    0.5730E-02
  1361.40    0.5811E-02
  1364.92    0.5897E-02
  1368.44    0.5989E-02
  1371.95    0.6089E-02
  1375.47    0.6197E-02
  1378.99    0.6315E-02
  1382.51    0.6446E-02
  1386.02    0.6593E-02
  1389.54    0.6759E-02
  1393.06    0.6951E-02
  1396.58    0.7175E-02
  1400.10    0.7443E-02
  1403.61    0.7769E-02
  1407.13    0.8176E-02
  1410.65    0.8700E-02
  1414.17    0.9393E-02
  1417.69    0.1034E-01
  1421.20    0.1169E-01
  1424.72    0.1366E-01
  1428.24    0.1660E-01
  1431.76    0.2087E-01
  1435.27    0.2616E-01
  1438.79    0.2998E-01
  1442.31    0.2890E-01
  1445.83    0.2412E-01
  1449.35    0.1927E-01
  1452.86    0.1575E-01
  1456.38    0.1342E-01
  1459.90    0.1190E-01
  1463.42    0.1090E-01
  1466.93    0.1022E-01
  1470.45    0.9762E-02
  1473.97    0.9444E-02
  1477.49    0.9227E-02
  1481.01    0.9081E-02
  1484.52    0.8987E-02
  1488.04    0.8932E-02
  1491.56    0.8907E-02
  1495.08    0.8905E-02
  1498.59    0.8922E-02
  1502.11    0.8955E-02
  1505.63    0.9000E-02
  1509.15    0.9056E-02
  1512.67    0.9121E-02
  1516.18    0.9195E-02
  1519.70    0.9275E-02
  1523.22    0.9362E-02
  1526.74    0.9455E-02
  1530.26    0.9553E-02
  1533.77    0.9656E-02
  1537.29    0.9764E-02
  1540.81    0.9876E-02
  1544.33    0.9993E-02
  1547.84    0.1011E-01
  1551.36    0.1024E-01
  1554.88    0.1037E-01
  1558.40    0.1050E-01
  1561.92    0.1064E-01
  1565.43    0.1078E-01
  1568.95    0.1093E-01
  1572.47    0.1108E-01
  1575.99    0.1123E-01
  1579.50    0.1139E-01
  1583.02    0.1155E-01
  1586.54    0.1172E-01
  1590.06    0.1189E-01
  1593.58    0.1206E-01
  1597.09    0.1224E-01
  1600.61    0.1243E-01
  1604.13    0.1262E-01
  1607.65    0.1281E-01
  1611.16    0.1301E-01
  1614.68    0.1322E-01
  1618.20    0.1343E-01
  1621.72    0.1365E-01
  1625.24    0.1387E-01
  1628.75    0.1409E-01
  1632.27    0.1433E-01
  1635.79    0.1457E-01
  1639.31    0.1481E-01
  1642.82    0.1507E-01
  1646.34    0.1533E-01
  1649.86    0.1560E-01
  1653.38    0.1587E-01
  1656.90    0.1615E-01
  1660.41    0.1644E-01
  1663.93    0.1674E-01
  1667.45    0.1705E-01
  1670.97    0.1736E-01
  1674.49    0.1769E-01
  1678.00    0.1802E-01
  1681.52    0.1837E-01
  1685.04    0.1872E-01
  1688.56    0.1909E-01
  1692.07    0.1947E-01
  1695.59    0.1985E-01
  1699.11    0.2026E-01
  1702.63    0.2067E-01
  1706.15    0.2109E-01
  1709.66    0.2153E-01
  1713.18    0.2199E-01
  1716.70    0.2246E-01
  1720.22    0.2294E-01
  1723.73    0.2344E-01
  1727.25    0.2396E-01
  1730.77    0.2449E-01
  1734.29    0.2505E-01
  1737.81    0.2562E-01
  1741.32    0.2621E-01
  1744.84    0.2683E-01
  1748.36    0.2746E-01
  1751.88    0.2812E-01
  1755.39    0.2881E-01
  1758.91    0.2951E-01
  1762.43    0.3025E-01
  1765.95    0.3102E-01
  1769.47    0.3181E-01
  1772.98    0.3264E-01
  1776.50    0.3349E-01
  1780.02    0.3439E-01
  1783.54    0.3532E-01
  1787.05    0.3629E-01
  1790.57    0.3730E-01
  1794.09    0.3835E-01
  1797.61    0.3945E-01
  1801.13    0.4060E-01
  1804.64    0.4180E-01
  1808.16    0.4305E-01
  1811.68    0.4436E-01
  1815.20    0.4574E-01
  1818.72    0.4717E-01
  1822.23    0.4868E-01
  1825.75    0.5027E-01
  1829.27    0.5193E-01
  1832.79    0.5367E-01
  1836.30    0.5551E-01
  1839.82    0.5745E-01
  1843.34    0.5949E-01
  1846.86    0.6164E-01
  1850.38    0.6391E-01
  1853.89    0.6631E-01
  1857.41    0.6885E-01
  1860.93    0.7153E-01
  1864.45    0.7439E-01
  1867.96    0.7742E-01
  1871.48    0.8063E-01
  1875.00    0.8406E-01
  1878.52    0.8772E-01
  1882.04    0.9162E-01
  1885.55    0.9578E-01
  1889.07    0.1002    
  1892.59    0.1050    
  1896.11    0.1102    
  1899.62    0.1157    
  1903.14    0.1217    
  1906.66    0.1281    
  1910.18    0.1351    
  1913.70    0.1427    
  1917.21    0.1510    
  1920.73    0.1600    
  1924.25    0.1698    
  1927.77    0.1807    
  1931.29    0.1926    
  1934.80    0.2057    
  1938.32    0.2203    
  1941.84    0.2365    
  1945.36    0.2546    
  1948.87    0.2749    
  1952.39    0.2979    
  1955.91    0.3239    
  1959.43    0.3536    
  1962.95    0.3878    
  1966.46    0.4272    
  1969.98    0.4732    
  1973.50    0.5274    
  1977.02    0.5919    
  1980.53    0.6695    
  1984.05    0.7642    
  1987.57    0.8815    
  1991.09     1.029    
  1994.61     1.219    
  1998.12     1.470    
  2001.64     1.809    
  2005.16     2.281    
  2008.68     2.960    
  2012.19     3.961    
  2015.71     5.431    
  2019.23     7.413    
  2022.75     9.367    
  2026.27     9.970    
  2029.78     8.916    
  2033.30     7.544    
  2036.82     6.802    
  2040.34     6.911    
  2043.85     7.948    
  2047.37     10.02    
  2050.89     12.97    
  2054.41     15.36    
  2057.93     14.90    
  2061.44     11.87    
  2064.96     8.591    
  2068.48     6.136    
  2072.00     4.478    
  2075.52     3.370    
  2079.03     2.613    
  2082.55     2.080    
  2086.07     1.694    
  2089.59     1.406    
  2093.10     1.187    
  2096.62     1.017    
  2100.14    0.8813    
  2103.66    0.7726    
  2107.18    0.6840    
  2110.69    0.6111    
  2114.21    0.5505    
  2117.73    0.4997    
  2121.25    0.4571    
  2124.76    0.4213    
  2128.28    0.3914    
  2131.80    0.3668    
  2135.32    0.3469    
  2138.84    0.3317    
  2142.35    0.3211    
  2145.87    0.3157    
  2149.39    0.3164    
  2152.91    0.3247    
  2156.42    0.3434    
  2159.94    0.3771    
  2163.46    0.4337    
  2166.98    0.5255    
  2170.50    0.6683    
  2174.01    0.8657    
  2177.53     1.055    
  2181.05     1.084    
  2184.57    0.9155    
  2188.08    0.6942    
  2191.60    0.5180    
  2195.12    0.3965    
  2198.64    0.3146    
  2202.16    0.2583    
  2205.67    0.2182    
  2209.19    0.1887    
  2212.71    0.1663    
  2216.23    0.1488    
  2219.75    0.1347    
  2223.26    0.1232    
  2226.78    0.1136    
  2230.30    0.1054    
  2233.82    0.9837E-01
  2237.33    0.9224E-01
  2240.85    0.8684E-01
  2244.37    0.8205E-01
  2247.89    0.7775E-01
  2251.41    0.7387E-01
  2254.92    0.7034E-01
  2258.44    0.6713E-01
  2261.96    0.6418E-01
  2265.48    0.6146E-01
  2268.99    0.5894E-01
  2272.51    0.5661E-01
  2276.03    0.5443E-01
  2279.55    0.5240E-01
  2283.07    0.5050E-01
  2286.58    0.4871E-01
  2290.10    0.4703E-01
  2293.62    0.4545E-01
  2297.14    0.4396E-01
  2300.65    0.4254E-01
  2304.17    0.4121E-01
  2307.69    0.3994E-01
  2311.21    0.3873E-01
  2314.73    0.3758E-01
  2318.24    0.3649E-01
  2321.76    0.3545E-01
  2325.28    0.3445E-01
  2328.80    0.3350E-01
  2332.32    0.3259E-01
  2335.83    0.3172E-01
  2339.35    0.3089E-01
  2342.87    0.3009E-01
  2346.39    0.2932E-01
  2349.90    0.2859E-01
  2353.42    0.2788E-01
  2356.94    0.2720E-01
  2360.46    0.2655E-01
  2363.98    0.2592E-01
  2367.49    0.2531E-01
  2371.01    0.2472E-01
  2374.53    0.2416E-01
  2378.05    0.2362E-01
  2381.56    0.2309E-01
  2385.08    0.2258E-01
  2388.60    0.2209E-01
  2392.12    0.2162E-01
  2395.64    0.2116E-01
  2399.15    0.2072E-01
  2402.67    0.2029E-01
  2406.19    0.1987E-01
  2409.71    0.1947E-01
  2413.22    0.1908E-01
  2416.74    0.1870E-01
  2420.26    0.1834E-01
  2423.78    0.1798E-01
  2427.30    0.1764E-01
  2430.81    0.1730E-01
  2434.33    0.1698E-01
  2437.85    0.1666E-01
  2441.37    0.1635E-01
  2444.88    0.1605E-01
  2448.40    0.1576E-01
  2451.92    0.1548E-01
  2455.44    0.1521E-01
  2458.96    0.1494E-01
  2462.47    0.1468E-01
  2465.99    0.1443E-01
  2469.51    0.1418E-01
  2473.03    0.1394E-01
  2476.55    0.1370E-01
  2480.06    0.1348E-01
  2483.58    0.1325E-01
  2487.10    0.1304E-01
  2490.62    0.1283E-01
  2494.13    0.1262E-01
  2497.65    0.1242E-01
  2501.17    0.1222E-01
  2504.69    0.1203E-01
  2508.21    0.1184E-01
  2511.72    0.1166E-01
  2515.24    0.1148E-01
  2518.76    0.1131E-01
  2522.28    0.1114E-01
  2525.79    0.1097E-01
  2529.31    0.1081E-01
  2532.83    0.1065E-01
  2536.35    0.1049E-01
  2539.87    0.1034E-01
  2543.38    0.1019E-01
  2546.90    0.1005E-01
  2550.42    0.9903E-02
  2553.94    0.9764E-02
  2557.45    0.9628E-02
  2560.97    0.9494E-02
  2564.49    0.9363E-02
  2568.01    0.9235E-02
  2571.53    0.9110E-02
  2575.04    0.8987E-02
  2578.56    0.8866E-02
  2582.08    0.8748E-02
  2585.60    0.8633E-02
  2589.12    0.8520E-02
  2592.63    0.8408E-02
  2596.15    0.8300E-02
  2599.67    0.8193E-02
  2603.19    0.8088E-02
  2606.70    0.7986E-02
  2610.22    0.7885E-02
  2613.74    0.7786E-02
  2617.26    0.7689E-02
  2620.78    0.7594E-02
  2624.29    0.7501E-02
  2627.81    0.7409E-02
  2631.33    0.7319E-02
  2634.85    0.7231E-02
  2638.36    0.7144E-02
  2641.88    0.7059E-02
  2645.40    0.6975E-02
  2648.92    0.6893E-02
  2652.44    0.6813E-02
  2655.95    0.6734E-02
  2659.47    0.6656E-02
  2662.99    0.6579E-02
  2666.51    0.6504E-02
  2670.02    0.6430E-02
  2673.54    0.6358E-02
  2677.06    0.6286E-02
  2680.58    0.6216E-02
  2684.10    0.6147E-02
  2687.61    0.6079E-02
  2691.13    0.6013E-02
  2694.65    0.5947E-02
  2698.17    0.5882E-02
  2701.68    0.5819E-02
  2705.20    0.5757E-02
  2708.72    0.5695E-02
  2712.24    0.5635E-02
  2715.76    0.5575E-02
  2719.27    0.5517E-02
  2722.79    0.5459E-02
  2726.31    0.5402E-02
  2729.83    0.5347E-02
  2733.35    0.5292E-02
  2736.86    0.5238E-02
  2740.38    0.5184E-02
  2743.90    0.5132E-02
  2747.42    0.5080E-02
  2750.93    0.5029E-02
  2754.45    0.4979E-02
  2757.97    0.4930E-02
  2761.49    0.4881E-02
  2765.01    0.4833E-02
  2768.52    0.4786E-02
  2772.04    0.4740E-02
  2775.56    0.4694E-02
  2779.08    0.4649E-02
  2782.59    0.4604E-02
  2786.11    0.4560E-02
  2789.63    0.4517E-02
  2793.15    0.4475E-02
  2796.67    0.4433E-02
  2800.18    0.4391E-02
  2803.70    0.4350E-02
  2807.22    0.4310E-02
  2810.74    0.4271E-02
  2814.25    0.4231E-02
  2817.77    0.4193E-02
  2821.29    0.4155E-02
  2824.81    0.4117E-02
  2828.33    0.4080E-02
  2831.84    0.4044E-02
  2835.36    0.4008E-02
  2838.88    0.3972E-02
  2842.40    0.3937E-02
  2845.91    0.3902E-02
  2849.43    0.3868E-02
  2852.95    0.3835E-02
  2856.47    0.3801E-02
  2859.99    0.3769E-02
  2863.50    0.3736E-02
  2867.02    0.3704E-02
  2870.54    0.3673E-02
  2874.06    0.3642E-02
  2877.58    0.3611E-02
  2881.09    0.3580E-02
  2884.61    0.3550E-02
  2888.13    0.3521E-02
  2891.65    0.3492E-02
  2895.16    0.3463E-02
  2898.68    0.3434E-02
  2902.20    0.3406E-02
  2905.72    0.3378E-02
  2909.24    0.3351E-02
  2912.75    0.3324E-02
  2916.27    0.3297E-02
  2919.79    0.3271E-02
  2923.31    0.3244E-02
  2926.82    0.3219E-02
  2930.34    0.3193E-02
  2933.86    0.3168E-02
  2937.38    0.3143E-02
  2940.90    0.3118E-02
  2944.41    0.3094E-02
  2947.93    0.3070E-02
  2951.45    0.3046E-02
  2954.97    0.3023E-02
  2958.48    0.3000E-02
  2962.00    0.2977E-02
  2965.52    0.2954E-02
  2969.04    0.2932E-02
  2972.56    0.2910E-02
  2976.07    0.2888E-02
  2979.59    0.2866E-02
  2983.11    0.2845E-02
  2986.63    0.2824E-02
  2990.15    0.2803E-02
  2993.66    0.2782E-02
  2997.18    0.2762E-02
  3000.70    0.2741E-02
  3004.22    0.2721E-02
  3007.73    0.2702E-02
  3011.25    0.2682E-02
  3014.77    0.2663E-02
  3018.29    0.2644E-02
  3021.81    0.2625E-02
  3025.32    0.2606E-02
  3028.84    0.2588E-02
  3032.36    0.2569E-02
  3035.88    0.2551E-02
  3039.39    0.2533E-02
  3042.91    0.2516E-02
  3046.43    0.2498E-02
  3049.95    0.2481E-02
  3053.47    0.2464E-02
  3056.98    0.2447E-02
  3060.50    0.2430E-02
  3064.02    0.2413E-02
  3067.54    0.2397E-02
  3071.05    0.2381E-02
  3074.57    0.2365E-02
  3078.09    0.2349E-02
  3081.61    0.2333E-02
  3085.13    0.2317E-02
  3088.64    0.2302E-02
  3092.16    0.2287E-02
  3095.68    0.2271E-02
  3099.20    0.2257E-02
  3102.71    0.2242E-02
  3106.23    0.2227E-02
  3109.75    0.2213E-02
  3113.27    0.2198E-02
  3116.79    0.2184E-02
  3120.30    0.2170E-02
  3123.82    0.2156E-02
  3127.34    0.2142E-02
  3130.86    0.2129E-02
  3134.38    0.2115E-02
  3137.89    0.2102E-02
  3141.41    0.2089E-02
  3144.93    0.2076E-02
  3148.45    0.2063E-02
  3151.96    0.2050E-02
  3155.48    0.2037E-02
  3159.00    0.2025E-02
  3162.52    0.2012E-02
  3166.04    0.2000E-02
  3169.55    0.1988E-02
  3173.07    0.1976E-02
  3176.59    0.1964E-02
  3180.11    0.1952E-02
  3183.62    0.1940E-02
  3187.14    0.1929E-02
  3190.66    0.1917E-02
  3194.18    0.1906E-02
  3197.70    0.1895E-02
  3201.21    0.1884E-02
  3204.73    0.1873E-02
  3208.25    0.1862E-02
  3211.77    0.1851E-02
  3215.28    0.1841E-02
  3218.80    0.1830E-02
  3222.32    0.1820E-02
  3225.84    0.1810E-02
  3229.36    0.1800E-02
  3232.87    0.1790E-02
  3236.39    0.1780E-02
  3239.91    0.1770E-02
  3243.43    0.1760E-02
  3246.94    0.1751E-02
  3250.46    0.1741E-02
  3253.98    0.1732E-02
  3257.50    0.1723E-02
  3261.02    0.1714E-02
  3264.53    0.1705E-02
  3268.05    0.1696E-02
  3271.57    0.1688E-02
  3275.09    0.1679E-02
  3278.61    0.1671E-02
  3282.12    0.1663E-02
  3285.64    0.1655E-02
  3289.16    0.1647E-02
  3292.68    0.1639E-02
  3296.19    0.1631E-02
  3299.71    0.1624E-02
  3303.23    0.1617E-02
  3306.75    0.1610E-02
  3310.27    0.1603E-02
  3313.78    0.1597E-02
  3317.30    0.1591E-02
  3320.82    0.1585E-02
  3324.34    0.1579E-02
  3327.85    0.1574E-02
  3331.37    0.1569E-02
  3334.89    0.1564E-02
  3338.41    0.1560E-02
  3341.93    0.1557E-02
  3345.44    0.1553E-02
  3348.96    0.1551E-02
  3352.48    0.1549E-02
  3356.00    0.1549E-02
  3359.51    0.1549E-02
  3363.03    0.1550E-02
  3366.55    0.1553E-02
  3370.07    0.1557E-02
  3373.59    0.1563E-02
  3377.10    0.1572E-02
  3380.62    0.1583E-02
  3384.14    0.1598E-02
  3387.66    0.1618E-02
  3391.18    0.1643E-02
  3394.69    0.1676E-02
  3398.21    0.1719E-02
  3401.73    0.1774E-02
  3405.25    0.1848E-02
  3408.76    0.1948E-02
  3412.28    0.2084E-02
  3415.80    0.2275E-02
  3419.32    0.2549E-02
  3422.84    0.2954E-02
  3426.35    0.3565E-02
  3429.87    0.4480E-02
  3433.39    0.5754E-02
  3436.91    0.7123E-02
  3440.42    0.7705E-02
  3443.94    0.6902E-02
  3447.46    0.5471E-02
  3450.98    0.4234E-02
  3454.50    0.3370E-02
  3458.01    0.2794E-02
  3461.53    0.2407E-02
  3465.05    0.2140E-02
  3468.57    0.1949E-02
  3472.08    0.1808E-02
  3475.60    0.1702E-02
  3479.12    0.1619E-02
  3482.64    0.1553E-02
  3486.16    0.1500E-02
  3489.67    0.1455E-02
  3493.19    0.1418E-02
  3496.71    0.1387E-02
  3500.23    0.1359E-02
  3503.74    0.1336E-02
