
 ------------------------------------------------------------
     normal          Raman Scattering Plot
 ------------------------------------------------------------
 Excitation wavelength  514.50 nm
 Convolution lineshape is lorentzian  
 FWHM   20.00  1/cm
 ------------------------------------------------------------
 ------------------------------------------------------------
 # of frequencies :    36
 ------------------------------------------------------------
 #  freq [ 1/cm]  S [Ang**4/amu]
 ------------------------------------------------------------
   1    69.93        0.0843
   2   116.55        2.2274
   3   116.58        2.3364
   4   182.99        0.0025
   5   185.21        0.0226
   6   266.21        1.5191
   7   266.24        1.7860
   8   307.72        6.6324
   9   348.48        0.2489
  10   348.72        0.3196
  11   454.85        0.9308
  12   454.88        0.8665
  13   523.00        0.0603
  14   523.26        0.0709
  15   588.10        2.6104
  16   588.12        2.7859
  17   612.93        0.0105
  18   629.85        0.4975
  19   634.52        0.0003
  20   656.51        3.0252
  21   656.52        4.7554
  22   678.21        0.1857
  23   682.77        0.0071
  24   707.25       47.9028
  25   707.27       47.9290
  26   901.24       13.9031
  27  1166.23        0.5281
  28  1395.56       13.2201
  29  1929.38        0.0602
  30  1982.32    17779.9578
  31  2003.76    14524.1491
  32  2068.70        2.9959
  33  2122.06        0.1965
  34  2127.74     1440.1612
  35  3430.80        0.0713
  36  3437.91       11.1307
 ------------------------------------------------------------
    13.42    0.3525E-02
    16.91    0.3732E-02
    20.40    0.3966E-02
    23.89    0.4231E-02
    27.38    0.4535E-02
    30.87    0.4886E-02
    34.37    0.5296E-02
    37.86    0.5783E-02
    41.35    0.6369E-02
    44.84    0.7091E-02
    48.33    0.8001E-02
    51.82    0.9182E-02
    55.31    0.1077E-01
    58.81    0.1294E-01
    62.30    0.1588E-01
    65.79    0.1941E-01
    69.28    0.2228E-01
    72.77    0.2311E-01
    76.26    0.2278E-01
    79.75    0.2307E-01
    83.25    0.2473E-01
    86.74    0.2801E-01
    90.23    0.3320E-01
    93.72    0.4095E-01
    97.21    0.5243E-01
   100.70    0.6964E-01
   104.20    0.9569E-01
   107.69    0.1344    
   111.18    0.1854    
   114.67    0.2304    
   118.16    0.2327    
   121.65    0.1899    
   125.14    0.1382    
   128.64    0.9812E-01
   132.13    0.7094E-01
   135.62    0.5288E-01
   139.11    0.4068E-01
   142.60    0.3221E-01
   146.09    0.2615E-01
   149.58    0.2171E-01
   153.08    0.1837E-01
   156.57    0.1582E-01
   160.06    0.1383E-01
   163.55    0.1226E-01
   167.04    0.1102E-01
   170.53    0.1004E-01
   174.02    0.9270E-02
   177.52    0.8686E-02
   181.01    0.8244E-02
   184.50    0.7853E-02
   187.99    0.7423E-02
   191.48    0.6988E-02
   194.97    0.6624E-02
   198.47    0.6351E-02
   201.96    0.6162E-02
   205.45    0.6044E-02
   208.94    0.5991E-02
   212.43    0.6002E-02
   215.92    0.6077E-02
   219.41    0.6224E-02
   222.91    0.6454E-02
   226.40    0.6785E-02
   229.89    0.7244E-02
   233.38    0.7871E-02
   236.87    0.8728E-02
   240.36    0.9912E-02
   243.85    0.1158E-01
   247.35    0.1397E-01
   250.84    0.1750E-01
   254.33    0.2278E-01
   257.82    0.3049E-01
   261.31    0.4033E-01
   264.80    0.4833E-01
   268.29    0.4800E-01
   271.79    0.4033E-01
   275.28    0.3208E-01
   278.77    0.2648E-01
   282.26    0.2365E-01
   285.75    0.2316E-01
   289.24    0.2485E-01
   292.73    0.2903E-01
   296.23    0.3650E-01
   299.72    0.4815E-01
   303.21    0.6296E-01
   306.70    0.7357E-01
   310.19    0.6996E-01
   313.68    0.5549E-01
   317.18    0.4075E-01
   320.67    0.2992E-01
   324.16    0.2270E-01
   327.65    0.1798E-01
   331.14    0.1490E-01
   334.63    0.1297E-01
   338.12    0.1192E-01
   341.62    0.1159E-01
   345.11    0.1169E-01
   348.60    0.1146E-01
   352.09    0.1032E-01
   355.58    0.8745E-02
   359.07    0.7377E-02
   362.56    0.6364E-02
   366.06    0.5636E-02
   369.55    0.5104E-02
   373.04    0.4705E-02
   376.53    0.4397E-02
   380.02    0.4157E-02
   383.51    0.3966E-02
   387.00    0.3814E-02
   390.50    0.3693E-02
   393.99    0.3599E-02
   397.48    0.3528E-02
   400.97    0.3479E-02
   404.46    0.3451E-02
   407.95    0.3444E-02
   411.45    0.3460E-02
   414.94    0.3503E-02
   418.43    0.3579E-02
   421.92    0.3696E-02
   425.41    0.3869E-02
   428.90    0.4120E-02
   432.39    0.4487E-02
   435.89    0.5029E-02
   439.38    0.5843E-02
   442.87    0.7077E-02
   446.36    0.8902E-02
   449.85    0.1125E-01
   453.34    0.1317E-01
   456.83    0.1301E-01
   460.33    0.1095E-01
   463.82    0.8646E-02
   467.31    0.6912E-02
   470.80    0.5749E-02
   474.29    0.4985E-02
   477.78    0.4477E-02
   481.27    0.4135E-02
   484.77    0.3901E-02
   488.26    0.3743E-02
   491.75    0.3640E-02
   495.24    0.3578E-02
   498.73    0.3550E-02
   502.22    0.3553E-02
   505.72    0.3587E-02
   509.21    0.3658E-02
   512.70    0.3774E-02
   516.19    0.3941E-02
   519.68    0.4136E-02
   523.17    0.4273E-02
   526.66    0.4285E-02
   530.16    0.4243E-02
   533.65    0.4237E-02
   537.14    0.4290E-02
   540.63    0.4402E-02
   544.12    0.4568E-02
   547.61    0.4791E-02
   551.10    0.5081E-02
   554.60    0.5454E-02
   558.09    0.5940E-02
   561.58    0.6583E-02
   565.07    0.7456E-02
   568.56    0.8680E-02
   572.05    0.1045E-01
   575.54    0.1305E-01
   579.04    0.1688E-01
   582.53    0.2194E-01
   586.02    0.2660E-01
   589.51    0.2732E-01
   593.00    0.2357E-01
   596.49    0.1881E-01
   599.98    0.1517E-01
   603.48    0.1284E-01
   606.97    0.1148E-01
   610.46    0.1078E-01
   613.95    0.1056E-01
   617.44    0.1072E-01
   620.93    0.1124E-01
   624.43    0.1213E-01
   627.92    0.1323E-01
   631.41    0.1433E-01
   634.90    0.1549E-01
   638.39    0.1719E-01
   641.88    0.1991E-01
   645.37    0.2410E-01
   648.87    0.3016E-01
   652.36    0.3753E-01
   655.85    0.4292E-01
   659.34    0.4257E-01
   662.83    0.3858E-01
   666.32    0.3533E-01
   669.81    0.3444E-01
   673.31    0.3595E-01
   676.80    0.3975E-01
   680.29    0.4598E-01
   683.78    0.5540E-01
   687.27    0.6954E-01
   690.76    0.9090E-01
   694.25    0.1234    
   697.75    0.1722    
   701.24    0.2390    
   704.73    0.3048    
   708.22    0.3210    
   711.71    0.2708    
   715.20    0.1996    
   718.70    0.1419    
   722.19    0.1022    
   725.68    0.7582E-01
   729.17    0.5805E-01
   732.66    0.4575E-01
   736.15    0.3699E-01
   739.64    0.3057E-01
   743.14    0.2575E-01
   746.63    0.2205E-01
   750.12    0.1915E-01
   753.61    0.1684E-01
   757.10    0.1498E-01
   760.59    0.1346E-01
   764.08    0.1220E-01
   767.58    0.1114E-01
   771.07    0.1025E-01
   774.56    0.9497E-02
   778.05    0.8850E-02
   781.54    0.8294E-02
   785.03    0.7813E-02
   788.52    0.7395E-02
   792.02    0.7031E-02
   795.51    0.6713E-02
   799.00    0.6435E-02
   802.49    0.6192E-02
   805.98    0.5979E-02
   809.47    0.5795E-02
   812.97    0.5635E-02
   816.46    0.5498E-02
   819.95    0.5382E-02
   823.44    0.5286E-02
   826.93    0.5210E-02
   830.42    0.5153E-02
   833.91    0.5116E-02
   837.41    0.5100E-02
   840.90    0.5106E-02
   844.39    0.5137E-02
   847.88    0.5197E-02
   851.37    0.5291E-02
   854.86    0.5427E-02
   858.35    0.5614E-02
   861.85    0.5869E-02
   865.34    0.6214E-02
   868.83    0.6682E-02
   872.32    0.7323E-02
   875.81    0.8217E-02
   879.30    0.9491E-02
   882.79    0.1135E-01
   886.29    0.1413E-01
   889.78    0.1833E-01
   893.27    0.2446E-01
   896.76    0.3203E-01
   900.25    0.3740E-01
   903.74    0.3569E-01
   907.23    0.2863E-01
   910.73    0.2144E-01
   914.22    0.1615E-01
   917.71    0.1260E-01
   921.20    0.1024E-01
   924.69    0.8627E-02
   928.18    0.7497E-02
   931.68    0.6681E-02
   935.17    0.6077E-02
   938.66    0.5619E-02
   942.15    0.5264E-02
   945.64    0.4985E-02
   949.13    0.4762E-02
   952.62    0.4582E-02
   956.12    0.4434E-02
   959.61    0.4312E-02
   963.10    0.4211E-02
   966.59    0.4126E-02
   970.08    0.4055E-02
   973.57    0.3995E-02
   977.06    0.3944E-02
   980.56    0.3902E-02
   984.05    0.3866E-02
   987.54    0.3835E-02
   991.03    0.3810E-02
   994.52    0.3789E-02
   998.01    0.3772E-02
  1001.50    0.3758E-02
  1005.00    0.3747E-02
  1008.49    0.3738E-02
  1011.98    0.3733E-02
  1015.47    0.3729E-02
  1018.96    0.3727E-02
  1022.45    0.3727E-02
  1025.95    0.3729E-02
  1029.44    0.3732E-02
  1032.93    0.3737E-02
  1036.42    0.3743E-02
  1039.91    0.3750E-02
  1043.40    0.3759E-02
  1046.89    0.3768E-02
  1050.39    0.3779E-02
  1053.88    0.3790E-02
  1057.37    0.3803E-02
  1060.86    0.3816E-02
  1064.35    0.3831E-02
  1067.84    0.3846E-02
  1071.33    0.3862E-02
  1074.83    0.3879E-02
  1078.32    0.3897E-02
  1081.81    0.3915E-02
  1085.30    0.3935E-02
  1088.79    0.3955E-02
  1092.28    0.3976E-02
  1095.77    0.3998E-02
  1099.27    0.4020E-02
  1102.76    0.4044E-02
  1106.25    0.4069E-02
  1109.74    0.4095E-02
  1113.23    0.4122E-02
  1116.72    0.4150E-02
  1120.22    0.4180E-02
  1123.71    0.4212E-02
  1127.20    0.4246E-02
  1130.69    0.4283E-02
  1134.18    0.4325E-02
  1137.67    0.4371E-02
  1141.16    0.4426E-02
  1144.66    0.4491E-02
  1148.15    0.4574E-02
  1151.64    0.4684E-02
  1155.13    0.4836E-02
  1158.62    0.5041E-02
  1162.11    0.5281E-02
  1165.60    0.5446E-02
  1169.10    0.5411E-02
  1172.59    0.5245E-02
  1176.08    0.5086E-02
  1179.57    0.4982E-02
  1183.06    0.4924E-02
  1186.55    0.4897E-02
  1190.04    0.4891E-02
  1193.54    0.4899E-02
  1197.03    0.4915E-02
  1200.52    0.4938E-02
  1204.01    0.4965E-02
  1207.50    0.4995E-02
  1210.99    0.5028E-02
  1214.48    0.5064E-02
  1217.98    0.5101E-02
  1221.47    0.5140E-02
  1224.96    0.5181E-02
  1228.45    0.5222E-02
  1231.94    0.5265E-02
  1235.43    0.5310E-02
  1238.93    0.5355E-02
  1242.42    0.5402E-02
  1245.91    0.5450E-02
  1249.40    0.5498E-02
  1252.89    0.5549E-02
  1256.38    0.5600E-02
  1259.87    0.5652E-02
  1263.37    0.5706E-02
  1266.86    0.5761E-02
  1270.35    0.5817E-02
  1273.84    0.5875E-02
  1277.33    0.5935E-02
  1280.82    0.5995E-02
  1284.31    0.6058E-02
  1287.81    0.6122E-02
  1291.30    0.6188E-02
  1294.79    0.6257E-02
  1298.28    0.6327E-02
  1301.77    0.6400E-02
  1305.26    0.6476E-02
  1308.75    0.6554E-02
  1312.25    0.6636E-02
  1315.74    0.6722E-02
  1319.23    0.6812E-02
  1322.72    0.6906E-02
  1326.21    0.7007E-02
  1329.70    0.7114E-02
  1333.20    0.7229E-02
  1336.69    0.7353E-02
  1340.18    0.7489E-02
  1343.67    0.7639E-02
  1347.16    0.7807E-02
  1350.65    0.7999E-02
  1354.14    0.8220E-02
  1357.64    0.8481E-02
  1361.13    0.8797E-02
  1364.62    0.9190E-02
  1368.11    0.9692E-02
  1371.60    0.1036E-01
  1375.09    0.1127E-01
  1378.58    0.1256E-01
  1382.08    0.1447E-01
  1385.57    0.1727E-01
  1389.06    0.2114E-01
  1392.55    0.2523E-01
  1396.04    0.2683E-01
  1399.53    0.2442E-01
  1403.02    0.2038E-01
  1406.52    0.1697E-01
  1410.01    0.1463E-01
  1413.50    0.1311E-01
  1416.99    0.1213E-01
  1420.48    0.1148E-01
  1423.97    0.1106E-01
  1427.47    0.1078E-01
  1430.96    0.1060E-01
  1434.45    0.1049E-01
  1437.94    0.1043E-01
  1441.43    0.1041E-01
  1444.92    0.1042E-01
  1448.41    0.1045E-01
  1451.91    0.1050E-01
  1455.40    0.1057E-01
  1458.89    0.1064E-01
  1462.38    0.1073E-01
  1465.87    0.1082E-01
  1469.36    0.1093E-01
  1472.85    0.1104E-01
  1476.35    0.1116E-01
  1479.84    0.1128E-01
  1483.33    0.1141E-01
  1486.82    0.1154E-01
  1490.31    0.1168E-01
  1493.80    0.1183E-01
  1497.29    0.1198E-01
  1500.79    0.1213E-01
  1504.28    0.1229E-01
  1507.77    0.1245E-01
  1511.26    0.1262E-01
  1514.75    0.1279E-01
  1518.24    0.1297E-01
  1521.73    0.1315E-01
  1525.23    0.1334E-01
  1528.72    0.1353E-01
  1532.21    0.1373E-01
  1535.70    0.1393E-01
  1539.19    0.1414E-01
  1542.68    0.1435E-01
  1546.18    0.1457E-01
  1549.67    0.1479E-01
  1553.16    0.1502E-01
  1556.65    0.1525E-01
  1560.14    0.1549E-01
  1563.63    0.1574E-01
  1567.12    0.1599E-01
  1570.62    0.1625E-01
  1574.11    0.1652E-01
  1577.60    0.1679E-01
  1581.09    0.1707E-01
  1584.58    0.1736E-01
  1588.07    0.1766E-01
  1591.56    0.1796E-01
  1595.06    0.1827E-01
  1598.55    0.1859E-01
  1602.04    0.1892E-01
  1605.53    0.1926E-01
  1609.02    0.1961E-01
  1612.51    0.1997E-01
  1616.00    0.2033E-01
  1619.50    0.2071E-01
  1622.99    0.2110E-01
  1626.48    0.2150E-01
  1629.97    0.2191E-01
  1633.46    0.2233E-01
  1636.95    0.2277E-01
  1640.45    0.2322E-01
  1643.94    0.2368E-01
  1647.43    0.2416E-01
  1650.92    0.2465E-01
  1654.41    0.2516E-01
  1657.90    0.2568E-01
  1661.39    0.2622E-01
  1664.89    0.2678E-01
  1668.38    0.2736E-01
  1671.87    0.2795E-01
  1675.36    0.2857E-01
  1678.85    0.2920E-01
  1682.34    0.2986E-01
  1685.83    0.3054E-01
  1689.33    0.3125E-01
  1692.82    0.3197E-01
  1696.31    0.3273E-01
  1699.80    0.3351E-01
  1703.29    0.3432E-01
  1706.78    0.3516E-01
  1710.27    0.3603E-01
  1713.77    0.3694E-01
  1717.26    0.3788E-01
  1720.75    0.3885E-01
  1724.24    0.3987E-01
  1727.73    0.4092E-01
  1731.22    0.4202E-01
  1734.72    0.4317E-01
  1738.21    0.4436E-01
  1741.70    0.4560E-01
  1745.19    0.4689E-01
  1748.68    0.4824E-01
  1752.17    0.4965E-01
  1755.66    0.5113E-01
  1759.16    0.5267E-01
  1762.65    0.5428E-01
  1766.14    0.5597E-01
  1769.63    0.5773E-01
  1773.12    0.5959E-01
  1776.61    0.6153E-01
  1780.10    0.6357E-01
  1783.60    0.6572E-01
  1787.09    0.6797E-01
  1790.58    0.7035E-01
  1794.07    0.7285E-01
  1797.56    0.7549E-01
  1801.05    0.7828E-01
  1804.54    0.8122E-01
  1808.04    0.8434E-01
  1811.53    0.8763E-01
  1815.02    0.9113E-01
  1818.51    0.9484E-01
  1822.00    0.9879E-01
  1825.49    0.1030    
  1828.98    0.1075    
  1832.48    0.1122    
  1835.97    0.1173    
  1839.46    0.1228    
  1842.95    0.1286    
  1846.44    0.1349    
  1849.93    0.1417    
  1853.43    0.1489    
  1856.92    0.1568    
  1860.41    0.1653    
  1863.90    0.1745    
  1867.39    0.1845    
  1870.88    0.1954    
  1874.37    0.2074    
  1877.87    0.2204    
  1881.36    0.2347    
  1884.85    0.2505    
  1888.34    0.2680    
  1891.83    0.2873    
  1895.32    0.3089    
  1898.81    0.3329    
  1902.31    0.3600    
  1905.80    0.3905    
  1909.29    0.4251    
  1912.78    0.4645    
  1916.27    0.5098    
  1919.76    0.5622    
  1923.25    0.6231    
  1926.75    0.6945    
  1930.24    0.7792    
  1933.73    0.8805    
  1937.22     1.003    
  1940.71     1.154    
  1944.20     1.341    
  1947.70     1.579    
  1951.19     1.885    
  1954.68     2.291    
  1958.17     2.840    
  1961.66     3.607    
  1965.15     4.708    
  1968.64     6.331    
  1972.14     8.734    
  1975.63     12.09    
  1979.12     15.80    
  1982.61     17.74    
  1986.10     16.56    
  1989.59     14.26    
  1993.08     12.99    
  1996.58     13.32    
  2000.07     14.69    
  2003.56     15.25    
  2007.05     13.40    
  2010.54     10.25    
  2014.03     7.458    
  2017.52     5.461    
  2021.02     4.105    
  2024.51     3.178    
  2028.00     2.528    
  2031.49     2.058    
  2034.98     1.709    
  2038.47     1.443    
  2041.97     1.236    
  2045.46     1.072    
  2048.95    0.9400    
  2052.44    0.8323    
  2055.93    0.7436    
  2059.42    0.6699    
  2062.91    0.6083    
  2066.41    0.5565    
  2069.90    0.5124    
  2073.39    0.4747    
  2076.88    0.4430    
  2080.37    0.4169    
  2083.86    0.3960    
  2087.35    0.3803    
  2090.85    0.3699    
  2094.34    0.3654    
  2097.83    0.3679    
  2101.32    0.3796    
  2104.81    0.4038    
  2108.30    0.4462    
  2111.79    0.5164    
  2115.29    0.6291    
  2118.78    0.8024    
  2122.27     1.036    
  2125.76     1.245    
  2129.25     1.254    
  2132.74     1.046    
  2136.23    0.7914    
  2139.73    0.5926    
  2143.22    0.4558    
  2146.71    0.3632    
  2150.20    0.2993    
  2153.69    0.2536    
  2157.18    0.2199    
  2160.68    0.1942    
  2164.17    0.1740    
  2167.66    0.1578    
  2171.15    0.1445    
  2174.64    0.1333    
  2178.13    0.1239    
  2181.62    0.1157    
  2185.12    0.1086    
  2188.61    0.1023    
  2192.10    0.9672E-01
  2195.59    0.9171E-01
  2199.08    0.8719E-01
  2202.57    0.8308E-01
  2206.06    0.7932E-01
  2209.56    0.7587E-01
  2213.05    0.7270E-01
  2216.54    0.6975E-01
  2220.03    0.6702E-01
  2223.52    0.6447E-01
  2227.01    0.6209E-01
  2230.50    0.5986E-01
  2234.00    0.5777E-01
  2237.49    0.5579E-01
  2240.98    0.5394E-01
  2244.47    0.5218E-01
  2247.96    0.5052E-01
  2251.45    0.4894E-01
  2254.95    0.4745E-01
  2258.44    0.4603E-01
  2261.93    0.4467E-01
  2265.42    0.4339E-01
  2268.91    0.4216E-01
  2272.40    0.4098E-01
  2275.89    0.3986E-01
  2279.39    0.3879E-01
  2282.88    0.3776E-01
  2286.37    0.3678E-01
  2289.86    0.3583E-01
  2293.35    0.3493E-01
  2296.84    0.3406E-01
  2300.33    0.3322E-01
  2303.83    0.3242E-01
  2307.32    0.3164E-01
  2310.81    0.3090E-01
  2314.30    0.3018E-01
  2317.79    0.2949E-01
  2321.28    0.2882E-01
  2324.77    0.2817E-01
  2328.27    0.2755E-01
  2331.76    0.2695E-01
  2335.25    0.2637E-01
  2338.74    0.2581E-01
  2342.23    0.2526E-01
  2345.72    0.2474E-01
  2349.22    0.2423E-01
  2352.71    0.2373E-01
  2356.20    0.2326E-01
  2359.69    0.2279E-01
  2363.18    0.2234E-01
  2366.67    0.2191E-01
  2370.16    0.2149E-01
  2373.66    0.2107E-01
  2377.15    0.2068E-01
  2380.64    0.2029E-01
  2384.13    0.1991E-01
  2387.62    0.1955E-01
  2391.11    0.1919E-01
  2394.60    0.1885E-01
  2398.10    0.1851E-01
  2401.59    0.1818E-01
  2405.08    0.1786E-01
  2408.57    0.1755E-01
  2412.06    0.1725E-01
  2415.55    0.1696E-01
  2419.04    0.1667E-01
  2422.54    0.1639E-01
  2426.03    0.1612E-01
  2429.52    0.1586E-01
  2433.01    0.1560E-01
  2436.50    0.1535E-01
  2439.99    0.1510E-01
  2443.48    0.1486E-01
  2446.98    0.1462E-01
  2450.47    0.1440E-01
  2453.96    0.1417E-01
  2457.45    0.1395E-01
  2460.94    0.1374E-01
  2464.43    0.1353E-01
  2467.93    0.1333E-01
  2471.42    0.1313E-01
  2474.91    0.1294E-01
  2478.40    0.1275E-01
  2481.89    0.1256E-01
  2485.38    0.1238E-01
  2488.87    0.1220E-01
  2492.37    0.1203E-01
  2495.86    0.1186E-01
  2499.35    0.1169E-01
  2502.84    0.1153E-01
  2506.33    0.1137E-01
  2509.82    0.1121E-01
  2513.31    0.1106E-01
  2516.81    0.1091E-01
  2520.30    0.1076E-01
  2523.79    0.1062E-01
  2527.28    0.1048E-01
  2530.77    0.1034E-01
  2534.26    0.1020E-01
  2537.75    0.1007E-01
  2541.25    0.9938E-02
  2544.74    0.9811E-02
  2548.23    0.9685E-02
  2551.72    0.9562E-02
  2555.21    0.9442E-02
  2558.70    0.9324E-02
  2562.20    0.9208E-02
  2565.69    0.9094E-02
  2569.18    0.8982E-02
  2572.67    0.8872E-02
  2576.16    0.8765E-02
  2579.65    0.8659E-02
  2583.14    0.8555E-02
  2586.64    0.8453E-02
  2590.13    0.8353E-02
  2593.62    0.8255E-02
  2597.11    0.8158E-02
  2600.60    0.8063E-02
  2604.09    0.7970E-02
  2607.58    0.7879E-02
  2611.08    0.7789E-02
  2614.57    0.7700E-02
  2618.06    0.7613E-02
  2621.55    0.7528E-02
  2625.04    0.7444E-02
  2628.53    0.7361E-02
  2632.02    0.7280E-02
  2635.52    0.7200E-02
  2639.01    0.7121E-02
  2642.50    0.7044E-02
  2645.99    0.6968E-02
  2649.48    0.6893E-02
  2652.97    0.6819E-02
  2656.47    0.6747E-02
  2659.96    0.6675E-02
  2663.45    0.6605E-02
  2666.94    0.6536E-02
  2670.43    0.6468E-02
  2673.92    0.6401E-02
  2677.41    0.6335E-02
  2680.91    0.6271E-02
  2684.40    0.6207E-02
  2687.89    0.6144E-02
  2691.38    0.6082E-02
  2694.87    0.6021E-02
  2698.36    0.5961E-02
  2701.85    0.5902E-02
  2705.35    0.5843E-02
  2708.84    0.5786E-02
  2712.33    0.5729E-02
  2715.82    0.5673E-02
  2719.31    0.5619E-02
  2722.80    0.5564E-02
  2726.29    0.5511E-02
  2729.79    0.5458E-02
  2733.28    0.5407E-02
  2736.77    0.5355E-02
  2740.26    0.5305E-02
  2743.75    0.5255E-02
  2747.24    0.5206E-02
  2750.73    0.5158E-02
  2754.23    0.5111E-02
  2757.72    0.5064E-02
  2761.21    0.5017E-02
  2764.70    0.4972E-02
  2768.19    0.4927E-02
  2771.68    0.4882E-02
  2775.18    0.4838E-02
  2778.67    0.4795E-02
  2782.16    0.4752E-02
  2785.65    0.4710E-02
  2789.14    0.4669E-02
  2792.63    0.4628E-02
  2796.12    0.4587E-02
  2799.62    0.4547E-02
  2803.11    0.4508E-02
  2806.60    0.4469E-02
  2810.09    0.4431E-02
  2813.58    0.4393E-02
  2817.07    0.4355E-02
  2820.56    0.4318E-02
  2824.06    0.4282E-02
  2827.55    0.4246E-02
  2831.04    0.4210E-02
  2834.53    0.4175E-02
  2838.02    0.4141E-02
  2841.51    0.4107E-02
  2845.00    0.4073E-02
  2848.50    0.4039E-02
  2851.99    0.4006E-02
  2855.48    0.3974E-02
  2858.97    0.3942E-02
  2862.46    0.3910E-02
  2865.95    0.3878E-02
  2869.45    0.3847E-02
  2872.94    0.3817E-02
  2876.43    0.3787E-02
  2879.92    0.3757E-02
  2883.41    0.3727E-02
  2886.90    0.3698E-02
  2890.39    0.3669E-02
  2893.89    0.3640E-02
  2897.38    0.3612E-02
  2900.87    0.3584E-02
  2904.36    0.3557E-02
  2907.85    0.3530E-02
  2911.34    0.3503E-02
  2914.83    0.3476E-02
  2918.33    0.3450E-02
  2921.82    0.3424E-02
  2925.31    0.3398E-02
  2928.80    0.3373E-02
  2932.29    0.3348E-02
  2935.78    0.3323E-02
  2939.27    0.3298E-02
  2942.77    0.3274E-02
  2946.26    0.3250E-02
  2949.75    0.3226E-02
  2953.24    0.3203E-02
  2956.73    0.3179E-02
  2960.22    0.3156E-02
  2963.72    0.3134E-02
  2967.21    0.3111E-02
  2970.70    0.3089E-02
  2974.19    0.3067E-02
  2977.68    0.3045E-02
  2981.17    0.3024E-02
  2984.66    0.3002E-02
  2988.16    0.2981E-02
  2991.65    0.2960E-02
  2995.14    0.2940E-02
  2998.63    0.2919E-02
  3002.12    0.2899E-02
  3005.61    0.2879E-02
  3009.10    0.2859E-02
  3012.60    0.2840E-02
  3016.09    0.2820E-02
  3019.58    0.2801E-02
  3023.07    0.2782E-02
  3026.56    0.2763E-02
  3030.05    0.2745E-02
  3033.54    0.2726E-02
  3037.04    0.2708E-02
  3040.53    0.2690E-02
  3044.02    0.2672E-02
  3047.51    0.2655E-02
  3051.00    0.2637E-02
  3054.49    0.2620E-02
  3057.99    0.2603E-02
  3061.48    0.2586E-02
  3064.97    0.2569E-02
  3068.46    0.2552E-02
  3071.95    0.2536E-02
  3075.44    0.2519E-02
  3078.93    0.2503E-02
  3082.43    0.2487E-02
  3085.92    0.2471E-02
  3089.41    0.2456E-02
  3092.90    0.2440E-02
  3096.39    0.2425E-02
  3099.88    0.2410E-02
  3103.37    0.2395E-02
  3106.87    0.2380E-02
  3110.36    0.2365E-02
  3113.85    0.2350E-02
  3117.34    0.2336E-02
  3120.83    0.2321E-02
  3124.32    0.2307E-02
  3127.81    0.2293E-02
  3131.31    0.2279E-02
  3134.80    0.2265E-02
  3138.29    0.2251E-02
  3141.78    0.2238E-02
  3145.27    0.2224E-02
  3148.76    0.2211E-02
  3152.25    0.2198E-02
  3155.75    0.2185E-02
  3159.24    0.2172E-02
  3162.73    0.2159E-02
  3166.22    0.2146E-02
  3169.71    0.2134E-02
  3173.20    0.2121E-02
  3176.70    0.2109E-02
  3180.19    0.2097E-02
  3183.68    0.2085E-02
  3187.17    0.2073E-02
  3190.66    0.2061E-02
  3194.15    0.2049E-02
  3197.64    0.2037E-02
  3201.14    0.2026E-02
  3204.63    0.2014E-02
  3208.12    0.2003E-02
  3211.61    0.1992E-02
  3215.10    0.1981E-02
  3218.59    0.1970E-02
  3222.08    0.1959E-02
  3225.58    0.1948E-02
  3229.07    0.1937E-02
  3232.56    0.1927E-02
  3236.05    0.1916E-02
  3239.54    0.1906E-02
  3243.03    0.1896E-02
  3246.52    0.1886E-02
  3250.02    0.1876E-02
  3253.51    0.1866E-02
  3257.00    0.1856E-02
  3260.49    0.1846E-02
  3263.98    0.1837E-02
  3267.47    0.1827E-02
  3270.97    0.1818E-02
  3274.46    0.1809E-02
  3277.95    0.1800E-02
  3281.44    0.1791E-02
  3284.93    0.1782E-02
  3288.42    0.1773E-02
  3291.91    0.1764E-02
  3295.41    0.1756E-02
  3298.90    0.1748E-02
  3302.39    0.1740E-02
  3305.88    0.1732E-02
  3309.37    0.1724E-02
  3312.86    0.1716E-02
  3316.35    0.1709E-02
  3319.85    0.1701E-02
  3323.34    0.1694E-02
  3326.83    0.1687E-02
  3330.32    0.1681E-02
  3333.81    0.1675E-02
  3337.30    0.1669E-02
  3340.79    0.1663E-02
  3344.29    0.1658E-02
  3347.78    0.1653E-02
  3351.27    0.1649E-02
  3354.76    0.1645E-02
  3358.25    0.1642E-02
  3361.74    0.1639E-02
  3365.24    0.1638E-02
  3368.73    0.1637E-02
  3372.22    0.1638E-02
  3375.71    0.1641E-02
  3379.20    0.1645E-02
  3382.69    0.1651E-02
  3386.18    0.1661E-02
  3389.68    0.1674E-02
  3393.17    0.1691E-02
  3396.66    0.1716E-02
  3400.15    0.1748E-02
  3403.64    0.1792E-02
  3407.13    0.1853E-02
  3410.62    0.1937E-02
  3414.12    0.2057E-02
  3417.61    0.2230E-02
  3421.10    0.2487E-02
  3424.59    0.2876E-02
  3428.08    0.3458E-02
  3431.57    0.4260E-02
  3435.06    0.5084E-02
  3438.56    0.5351E-02
  3442.05    0.4780E-02
  3445.54    0.3896E-02
  3449.03    0.3158E-02
  3452.52    0.2644E-02
  3456.01    0.2301E-02
  3459.50    0.2068E-02
  3463.00    0.1906E-02
  3466.49    0.1788E-02
  3469.98    0.1701E-02
  3473.47    0.1634E-02
  3476.96    0.1581E-02
  3480.45    0.1538E-02
  3483.95    0.1503E-02
  3487.44    0.1474E-02
  3490.93    0.1449E-02
  3494.42    0.1427E-02
  3497.91    0.1407E-02
  3501.40    0.1390E-02
