
 ------------------------------------------------------------
     normal          Raman Scattering Plot
 ------------------------------------------------------------
 Excitation wavelength  514.50 nm
 Convolution lineshape is lorentzian  
 FWHM   20.00  1/cm
 ------------------------------------------------------------
 ------------------------------------------------------------
 # of frequencies :    84
 ------------------------------------------------------------
 #  freq [ 1/cm]  S [Ang**4/amu]
 ------------------------------------------------------------
   1    15.00 54543089.3523
   2    15.38   773111.2621
   3    25.32 94659439.3932
   4    39.23  5412290.1151
   5    39.42 26460952.0499
   6    56.28  4018243.1421
   7    56.94 97112010.0860
   8    78.82 63756582.3202
   9    78.88 27240941.5815
  10   104.54 27965210.7674
  11   105.65  4518722.1414
  12   133.74111641102.2489
  13   133.77 13403057.1994
  14   138.21  2898301.4532
  15   165.39 18065738.1491
  16   165.85 40337659.7457
  17   200.21 84635530.5173
  18   200.31 16031271.4918
  19   236.27 46381808.6016
  20   237.21 63022835.6700
  21   272.87 61556510.0062
  22   273.03 59228537.6166
  23   277.07  3393904.5080
  24   309.42 13654197.2354
  25   309.69191351936.6881
  26   342.32  1808499.6422
  27   342.35488939860.4196
  28   394.78 15089926.5661
  29   395.02 33814914.0263
  30   414.56  5005417.8225
  31   427.18 34631912.0261
  32   427.22405532148.2488
  33   458.01 18213454.4135
  34   458.19 62619166.9255
  35   488.36   370705.9323
  36   488.37  2222033.0632
  37   518.43  1195002.2261
  38   518.58 46385466.8870
  39   548.94354043038.2008
  40   548.96264529423.6652
  41   552.52 22663802.0422
  42   578.90  5291221.7207
  43   579.22115855667.4730
  44   607.91 26200640.2900
  45   608.00116593464.0170
  46   631.74 70704788.7640
  47   633.15 84546101.9426
  48   653.13711319531.0363
  49   653.38120172348.2340
  50   669.51 36362940.0693
  51   671.29 16576360.8644
  52   687.66 39521301.5974
  53   689.65 37426485.8880
  54   689.75115446332.9671
  55   714.21 37221487.1944
  56   714.43 74812004.3181
  57   748.59 20507440.6698
  58   748.67 37074196.5835
  59   791.87100756201.3304
  60   791.97   124428.7571
  61   818.60  4408504.6073
  62   947.61   762736.6001
  63  1071.50  1480087.1737
  64  1190.37   217735.3815
  65  1303.74 10153267.1267
  66  1410.22  2893335.3249
  67  1506.68 10714018.7620
  68  1590.72  2314110.3881
  69  1772.15 25636283.4245
  70  1922.79  5591046.7023
  71  1953.80  2522027.1010
  72  1964.02 26655024.1767
  73  2002.43 54213471.5815
  74  2042.01 10088003.6854
  75  2064.66 18634094.9744
  76  2083.73 69422183.9333
  77  2121.48 43964876.5845
  78  2128.60  1429248.9154
  79  2149.84  1916435.1047
  80  2159.82 10506119.7556
  81  2172.03  1620635.5614
  82  2175.20 45719652.9204
  83  3427.36174240207.1373
  84  3431.93 14665717.5595
 ------------------------------------------------------------
   -41.46    0.6661E+07
   -37.92    0.7482E+07
   -34.38    0.8465E+07
   -30.84    0.9657E+07
   -27.30    0.1112E+08
   -23.76    0.1295E+08
   -20.22    0.1526E+08
   -16.68    0.1825E+08
   -13.14    0.2221E+08
    -9.60    0.2757E+08
    -6.06    0.3505E+08
    -2.52    0.4580E+08
     1.02    0.6167E+08
     4.56    0.8535E+08
     8.10    0.1191E+09
    11.64    0.1589E+09
    15.18    0.1861E+09
    18.72    0.1874E+09
    22.26    0.1759E+09
    25.80    0.1575E+09
    29.35    0.1291E+09
    32.89    0.1004E+09
    36.43    0.7951E+08
    39.97    0.6495E+08
    43.51    0.5383E+08
    47.05    0.4625E+08
    50.59    0.4262E+08
    54.13    0.4143E+08
    57.67    0.3904E+08
    61.21    0.3368E+08
    64.75    0.2790E+08
    68.29    0.2388E+08
    71.83    0.2193E+08
    75.37    0.2134E+08
    78.91    0.2041E+08
    82.45    0.1787E+08
    85.99    0.1469E+08
    89.53    0.1208E+08
    93.07    0.1031E+08
    96.61    0.9243E+07
   100.15    0.8671E+07
   103.70    0.8255E+07
   107.24    0.7624E+07
   110.78    0.6853E+07
   114.32    0.6252E+07
   117.86    0.5965E+07
   121.40    0.6037E+07
   124.94    0.6508E+07
   128.48    0.7337E+07
   132.02    0.8074E+07
   135.56    0.7887E+07
   139.10    0.6770E+07
   142.64    0.5531E+07
   146.18    0.4604E+07
   149.72    0.4016E+07
   153.26    0.3705E+07
   156.80    0.3626E+07
   160.34    0.3729E+07
   163.88    0.3852E+07
   167.42    0.3716E+07
   170.96    0.3306E+07
   174.50    0.2883E+07
   178.05    0.2586E+07
   181.59    0.2430E+07
   185.13    0.2404E+07
   188.67    0.2516E+07
   192.21    0.2782E+07
   195.75    0.3164E+07
   199.29    0.3430E+07
   202.83    0.3273E+07
   206.37    0.2809E+07
   209.91    0.2366E+07
   213.45    0.2065E+07
   216.99    0.1902E+07
   220.53    0.1854E+07
   224.07    0.1918E+07
   227.61    0.2107E+07
   231.15    0.2415E+07
   234.69    0.2711E+07
   238.23    0.2722E+07
   241.77    0.2406E+07
   245.31    0.2028E+07
   248.85    0.1754E+07
   252.40    0.1602E+07
   255.94    0.1555E+07
   259.48    0.1607E+07
   263.02    0.1769E+07
   266.56    0.2045E+07
   270.10    0.2353E+07
   273.64    0.2460E+07
   277.18    0.2247E+07
   280.72    0.1924E+07
   284.26    0.1680E+07
   287.80    0.1555E+07
   291.34    0.1541E+07
   294.88    0.1637E+07
   298.42    0.1860E+07
   301.96    0.2235E+07
   305.50    0.2715E+07
   309.04    0.3048E+07
   312.58    0.2944E+07
   316.12    0.2572E+07
   319.66    0.2271E+07
   323.21    0.2167E+07
   326.75    0.2281E+07
   330.29    0.2640E+07
   333.83    0.3289E+07
   337.37    0.4189E+07
   340.91    0.4918E+07
   344.45    0.4783E+07
   347.99    0.3878E+07
   351.53    0.2906E+07
   355.07    0.2183E+07
   358.61    0.1699E+07
   362.15    0.1380E+07
   365.69    0.1168E+07
   369.23    0.1026E+07
   372.77    0.9323E+06
   376.31    0.8764E+06
   379.85    0.8532E+06
   383.39    0.8633E+06
   386.93    0.9096E+06
   390.47    0.9865E+06
   394.01    0.1056E+07
   397.56    0.1068E+07
   401.10    0.1050E+07
   404.64    0.1067E+07
   408.18    0.1156E+07
   411.72    0.1339E+07
   415.26    0.1646E+07
   418.80    0.2116E+07
   422.34    0.2732E+07
   425.88    0.3217E+07
   429.42    0.3127E+07
   432.96    0.2547E+07
   436.50    0.1938E+07
   440.04    0.1500E+07
   443.58    0.1229E+07
   447.12    0.1084E+07
   450.66    0.1033E+07
   454.20    0.1041E+07
   457.74    0.1034E+07
   461.28    0.9398E+06
   464.82    0.7966E+06
   468.36    0.6710E+06
   471.91    0.5814E+06
   475.45    0.5213E+06
   478.99    0.4823E+06
   482.53    0.4582E+06
   486.07    0.4444E+06
   489.61    0.4367E+06
   493.15    0.4339E+06
   496.69    0.4383E+06
   500.23    0.4528E+06
   503.77    0.4802E+06
   507.31    0.5246E+06
   510.85    0.5909E+06
   514.39    0.6765E+06
   517.93    0.7565E+06
   521.47    0.8031E+06
   525.01    0.8429E+06
   528.55    0.9259E+06
   532.09    0.1087E+07
   535.63    0.1360E+07
   539.17    0.1791E+07
   542.71    0.2401E+07
   546.26    0.3032E+07
   549.80    0.3234E+07
   553.34    0.2809E+07
   556.88    0.2168E+07
   560.42    0.1651E+07
   563.96    0.1320E+07
   567.50    0.1140E+07
   571.04    0.1074E+07
   574.58    0.1088E+07
   578.12    0.1108E+07
   581.66    0.1045E+07
   585.20    0.9199E+06
   588.74    0.8139E+06
   592.28    0.7622E+06
   595.82    0.7688E+06
   599.36    0.8341E+06
   602.90    0.9491E+06
   606.44    0.1059E+07
   609.98    0.1071E+07
   613.52    0.9992E+06
   617.06    0.9422E+06
   620.61    0.9547E+06
   624.15    0.1050E+07
   627.69    0.1219E+07
   631.23    0.1407E+07
   634.77    0.1539E+07
   638.31    0.1663E+07
   641.85    0.1918E+07
   645.39    0.2390E+07
   648.93    0.3023E+07
   652.47    0.3445E+07
   656.01    0.3221E+07
   659.55    0.2573E+07
   663.09    0.1974E+07
   666.63    0.1569E+07
   670.17    0.1310E+07
   673.71    0.1131E+07
   677.25    0.1026E+07
   680.79    0.1006E+07
   684.33    0.1058E+07
   687.87    0.1109E+07
   691.41    0.1053E+07
   694.96    0.9008E+06
   698.50    0.7536E+06
   702.04    0.6630E+06
   705.58    0.6330E+06
   709.12    0.6507E+06
   712.66    0.6751E+06
   716.20    0.6412E+06
   719.74    0.5471E+06
   723.28    0.4502E+06
   726.82    0.3794E+06
   730.36    0.3349E+06
   733.90    0.3118E+06
   737.44    0.3073E+06
   740.98    0.3205E+06
   744.52    0.3455E+06
   748.06    0.3594E+06
   751.60    0.3369E+06
   755.14    0.2920E+06
   758.68    0.2514E+06
   762.22    0.2239E+06
   765.76    0.2080E+06
   769.31    0.2018E+06
   772.85    0.2045E+06
   776.39    0.2176E+06
   779.93    0.2443E+06
   783.47    0.2888E+06
   787.01    0.3487E+06
   790.55    0.3952E+06
   794.09    0.3828E+06
   797.63    0.3205E+06
   801.17    0.2551E+06
   804.71    0.2068E+06
   808.25    0.1748E+06
   811.79    0.1542E+06
   815.33    0.1407E+06
   818.87    0.1300E+06
   822.41    0.1195E+06
   825.95    0.1098E+06
   829.49    0.1018E+06
   833.03    0.9551E+05
   836.57    0.9051E+05
   840.12    0.8643E+05
   843.66    0.8300E+05
   847.20    0.8005E+05
   850.74    0.7748E+05
   854.28    0.7519E+05
   857.82    0.7314E+05
   861.36    0.7127E+05
   864.90    0.6957E+05
   868.44    0.6799E+05
   871.98    0.6653E+05
   875.52    0.6516E+05
   879.06    0.6388E+05
   882.60    0.6268E+05
   886.14    0.6154E+05
   889.68    0.6046E+05
   893.22    0.5944E+05
   896.76    0.5847E+05
   900.30    0.5754E+05
   903.84    0.5665E+05
   907.38    0.5580E+05
   910.92    0.5499E+05
   914.47    0.5422E+05
   918.01    0.5349E+05
   921.55    0.5279E+05
   925.09    0.5214E+05
   928.63    0.5154E+05
   932.17    0.5100E+05
   935.71    0.5056E+05
   939.25    0.5024E+05
   942.79    0.5002E+05
   946.33    0.4973E+05
   949.87    0.4909E+05
   953.41    0.4816E+05
   956.95    0.4724E+05
   960.49    0.4642E+05
   964.03    0.4571E+05
   967.57    0.4508E+05
   971.11    0.4450E+05
   974.65    0.4396E+05
   978.19    0.4344E+05
   981.73    0.4295E+05
   985.27    0.4247E+05
   988.82    0.4202E+05
   992.36    0.4157E+05
   995.90    0.4114E+05
   999.44    0.4071E+05
  1002.98    0.4030E+05
  1006.52    0.3990E+05
  1010.06    0.3951E+05
  1013.60    0.3913E+05
  1017.14    0.3876E+05
  1020.68    0.3840E+05
  1024.22    0.3805E+05
  1027.76    0.3771E+05
  1031.30    0.3738E+05
  1034.84    0.3706E+05
  1038.38    0.3677E+05
  1041.92    0.3649E+05
  1045.46    0.3623E+05
  1049.00    0.3602E+05
  1052.54    0.3585E+05
  1056.08    0.3577E+05
  1059.62    0.3581E+05
  1063.17    0.3603E+05
  1066.71    0.3639E+05
  1070.25    0.3660E+05
  1073.79    0.3621E+05
  1077.33    0.3533E+05
  1080.87    0.3442E+05
  1084.41    0.3368E+05
  1087.95    0.3310E+05
  1091.49    0.3263E+05
  1095.03    0.3223E+05
  1098.57    0.3188E+05
  1102.11    0.3155E+05
  1105.65    0.3125E+05
  1109.19    0.3097E+05
  1112.73    0.3070E+05
  1116.27    0.3043E+05
  1119.81    0.3018E+05
  1123.35    0.2993E+05
  1126.89    0.2969E+05
  1130.43    0.2945E+05
  1133.97    0.2922E+05
  1137.52    0.2900E+05
  1141.06    0.2877E+05
  1144.60    0.2856E+05
  1148.14    0.2834E+05
  1151.68    0.2813E+05
  1155.22    0.2793E+05
  1158.76    0.2773E+05
  1162.30    0.2754E+05
  1165.84    0.2735E+05
  1169.38    0.2717E+05
  1172.92    0.2700E+05
  1176.46    0.2685E+05
  1180.00    0.2671E+05
  1183.54    0.2660E+05
  1187.08    0.2651E+05
  1190.62    0.2636E+05
  1194.16    0.2614E+05
  1197.70    0.2589E+05
  1201.24    0.2564E+05
  1204.78    0.2543E+05
  1208.32    0.2523E+05
  1211.87    0.2505E+05
  1215.41    0.2488E+05
  1218.95    0.2472E+05
  1222.49    0.2457E+05
  1226.03    0.2442E+05
  1229.57    0.2428E+05
  1233.11    0.2414E+05
  1236.65    0.2401E+05
  1240.19    0.2389E+05
  1243.73    0.2378E+05
  1247.27    0.2368E+05
  1250.81    0.2359E+05
  1254.35    0.2352E+05
  1257.89    0.2346E+05
  1261.43    0.2343E+05
  1264.97    0.2344E+05
  1268.51    0.2348E+05
  1272.05    0.2359E+05
  1275.59    0.2379E+05
  1279.13    0.2412E+05
  1282.67    0.2464E+05
  1286.22    0.2548E+05
  1289.76    0.2680E+05
  1293.30    0.2886E+05
  1296.84    0.3185E+05
  1300.38    0.3519E+05
  1303.92    0.3665E+05
  1307.46    0.3462E+05
  1311.00    0.3099E+05
  1314.54    0.2784E+05
  1318.08    0.2561E+05
  1321.62    0.2410E+05
  1325.16    0.2305E+05
  1328.70    0.2230E+05
  1332.24    0.2174E+05
  1335.78    0.2130E+05
  1339.32    0.2095E+05
  1342.86    0.2066E+05
  1346.40    0.2041E+05
  1349.94    0.2019E+05
  1353.48    0.2000E+05
  1357.02    0.1983E+05
  1360.57    0.1968E+05
  1364.11    0.1955E+05
  1367.65    0.1943E+05
  1371.19    0.1933E+05
  1374.73    0.1924E+05
  1378.27    0.1917E+05
  1381.81    0.1913E+05
  1385.35    0.1913E+05
  1388.89    0.1918E+05
  1392.43    0.1931E+05
  1395.97    0.1956E+05
  1399.51    0.2000E+05
  1403.05    0.2069E+05
  1406.59    0.2149E+05
  1410.13    0.2186E+05
  1413.67    0.2134E+05
  1417.21    0.2035E+05
  1420.75    0.1947E+05
  1424.29    0.1882E+05
  1427.83    0.1837E+05
  1431.38    0.1805E+05
  1434.92    0.1781E+05
  1438.46    0.1762E+05
  1442.00    0.1747E+05
  1445.54    0.1735E+05
  1449.08    0.1726E+05
  1452.62    0.1718E+05
  1456.16    0.1713E+05
  1459.70    0.1709E+05
  1463.24    0.1708E+05
  1466.78    0.1710E+05
  1470.32    0.1715E+05
  1473.86    0.1726E+05
  1477.40    0.1743E+05
  1480.94    0.1771E+05
  1484.48    0.1813E+05
  1488.02    0.1879E+05
  1491.56    0.1981E+05
  1495.10    0.2141E+05
  1498.64    0.2379E+05
  1502.18    0.2678E+05
  1505.73    0.2888E+05
  1509.27    0.2807E+05
  1512.81    0.2512E+05
  1516.35    0.2217E+05
  1519.89    0.2001E+05
  1523.43    0.1856E+05
  1526.97    0.1757E+05
  1530.51    0.1687E+05
  1534.05    0.1637E+05
  1537.59    0.1600E+05
  1541.13    0.1571E+05
  1544.67    0.1547E+05
  1548.21    0.1529E+05
  1551.75    0.1514E+05
  1555.29    0.1501E+05
  1558.83    0.1492E+05
  1562.37    0.1485E+05
  1565.91    0.1482E+05
  1569.45    0.1482E+05
  1572.99    0.1489E+05
  1576.53    0.1504E+05
  1580.08    0.1533E+05
  1583.62    0.1578E+05
  1587.16    0.1631E+05
  1590.70    0.1654E+05
  1594.24    0.1617E+05
  1597.78    0.1548E+05
  1601.32    0.1487E+05
  1604.86    0.1443E+05
  1608.40    0.1411E+05
  1611.94    0.1388E+05
  1615.48    0.1370E+05
  1619.02    0.1356E+05
  1622.56    0.1344E+05
  1626.10    0.1334E+05
  1629.64    0.1325E+05
  1633.18    0.1317E+05
  1636.72    0.1309E+05
  1640.26    0.1302E+05
  1643.80    0.1296E+05
  1647.34    0.1290E+05
  1650.88    0.1284E+05
  1654.43    0.1278E+05
  1657.97    0.1273E+05
  1661.51    0.1268E+05
  1665.05    0.1263E+05
  1668.59    0.1259E+05
  1672.13    0.1255E+05
  1675.67    0.1251E+05
  1679.21    0.1248E+05
  1682.75    0.1245E+05
  1686.29    0.1242E+05
  1689.83    0.1240E+05
  1693.37    0.1238E+05
  1696.91    0.1237E+05
  1700.45    0.1236E+05
  1703.99    0.1236E+05
  1707.53    0.1237E+05
  1711.07    0.1239E+05
  1714.61    0.1243E+05
  1718.15    0.1248E+05
  1721.69    0.1256E+05
  1725.23    0.1266E+05
  1728.78    0.1280E+05
  1732.32    0.1298E+05
  1735.86    0.1323E+05
  1739.40    0.1357E+05
  1742.94    0.1405E+05
  1746.48    0.1471E+05
  1750.02    0.1565E+05
  1753.56    0.1705E+05
  1757.10    0.1915E+05
  1760.64    0.2235E+05
  1764.18    0.2706E+05
  1767.72    0.3290E+05
  1771.26    0.3695E+05
  1774.80    0.3541E+05
  1778.34    0.2984E+05
  1781.88    0.2432E+05
  1785.42    0.2032E+05
  1788.96    0.1765E+05
  1792.50    0.1586E+05
  1796.04    0.1464E+05
  1799.58    0.1378E+05
  1803.13    0.1315E+05
  1806.67    0.1268E+05
  1810.21    0.1232E+05
  1813.75    0.1203E+05
  1817.29    0.1180E+05
  1820.83    0.1161E+05
  1824.37    0.1146E+05
  1827.91    0.1133E+05
  1831.45    0.1122E+05
  1834.99    0.1113E+05
  1838.53    0.1105E+05
  1842.07    0.1098E+05
  1845.61    0.1093E+05
  1849.15    0.1088E+05
  1852.69    0.1084E+05
  1856.23    0.1081E+05
  1859.77    0.1079E+05
  1863.31    0.1078E+05
  1866.85    0.1078E+05
  1870.39    0.1078E+05
  1873.93    0.1080E+05
  1877.48    0.1083E+05
  1881.02    0.1088E+05
  1884.56    0.1094E+05
  1888.10    0.1103E+05
  1891.64    0.1114E+05
  1895.18    0.1130E+05
  1898.72    0.1152E+05
  1902.26    0.1182E+05
  1905.80    0.1224E+05
  1909.34    0.1285E+05
  1912.88    0.1375E+05
  1916.42    0.1498E+05
  1919.96    0.1629E+05
  1923.50    0.1692E+05
  1927.04    0.1653E+05
  1930.58    0.1586E+05
  1934.12    0.1554E+05
  1937.66    0.1575E+05
  1941.20    0.1652E+05
  1944.74    0.1794E+05
  1948.29    0.2019E+05
  1951.83    0.2339E+05
  1955.37    0.2758E+05
  1958.91    0.3262E+05
  1962.45    0.3679E+05
  1965.99    0.3659E+05
  1969.53    0.3241E+05
  1973.07    0.2803E+05
  1976.61    0.2534E+05
  1980.15    0.2445E+05
  1983.69    0.2525E+05
  1987.23    0.2786E+05
  1990.77    0.3277E+05
  1994.31    0.4059E+05
  1997.85    0.5068E+05
  2001.39    0.5806E+05
  2004.93    0.5575E+05
  2008.47    0.4609E+05
  2012.01    0.3641E+05
  2015.55    0.2952E+05
  2019.09    0.2515E+05
  2022.64    0.2259E+05
  2026.18    0.2133E+05
  2029.72    0.2113E+05
  2033.26    0.2193E+05
  2036.80    0.2361E+05
  2040.34    0.2541E+05
  2043.88    0.2605E+05
  2047.42    0.2568E+05
  2050.96    0.2586E+05
  2054.50    0.2758E+05
  2058.04    0.3111E+05
  2061.58    0.3586E+05
  2065.12    0.3978E+05
  2068.66    0.4201E+05
  2072.20    0.4538E+05
  2075.74    0.5264E+05
  2079.28    0.6333E+05
  2082.82    0.7100E+05
  2086.36    0.6724E+05
  2089.90    0.5526E+05
  2093.44    0.4378E+05
  2096.99    0.3597E+05
  2100.53    0.3155E+05
  2104.07    0.2982E+05
  2107.61    0.3046E+05
  2111.15    0.3360E+05
  2114.69    0.3938E+05
  2118.23    0.4627E+05
  2121.77    0.4919E+05
  2125.31    0.4470E+05
  2128.85    0.3692E+05
  2132.39    0.3025E+05
  2135.93    0.2575E+05
  2139.47    0.2319E+05
  2143.01    0.2213E+05
  2146.55    0.2230E+05
  2150.09    0.2344E+05
  2153.63    0.2546E+05
  2157.17    0.2823E+05
  2160.71    0.3103E+05
  2164.25    0.3393E+05
  2167.79    0.3851E+05
  2171.34    0.4459E+05
  2174.88    0.4764E+05
  2178.42    0.4322E+05
  2181.96    0.3466E+05
  2185.50    0.2700E+05
  2189.04    0.2155E+05
  2192.58    0.1789E+05
  2196.12    0.1540E+05
  2199.66    0.1367E+05
  2203.20    0.1241E+05
  2206.74    0.1147E+05
  2210.28    0.1076E+05
  2213.82    0.1019E+05
  2217.36     9737.    
  2220.90     9364.    
  2224.44     9054.    
  2227.98     8791.    
  2231.52     8565.    
  2235.06     8369.    
  2238.60     8198.    
  2242.14     8045.    
  2245.69     7909.    
  2249.23     7787.    
  2252.77     7676.    
  2256.31     7574.    
  2259.85     7481.    
  2263.39     7395.    
  2266.93     7315.    
  2270.47     7241.    
  2274.01     7171.    
  2277.55     7106.    
  2281.09     7044.    
  2284.63     6986.    
  2288.17     6931.    
  2291.71     6878.    
  2295.25     6828.    
  2298.79     6780.    
  2302.33     6734.    
  2305.87     6689.    
  2309.41     6647.    
  2312.95     6606.    
  2316.49     6566.    
  2320.04     6528.    
  2323.58     6491.    
  2327.12     6455.    
  2330.66     6420.    
  2334.20     6385.    
  2337.74     6352.    
  2341.28     6320.    
  2344.82     6288.    
  2348.36     6258.    
  2351.90     6227.    
  2355.44     6198.    
  2358.98     6169.    
  2362.52     6141.    
  2366.06     6113.    
  2369.60     6086.    
  2373.14     6059.    
  2376.68     6033.    
  2380.22     6007.    
  2383.76     5981.    
  2387.30     5956.    
  2390.84     5932.    
  2394.39     5907.    
  2397.93     5884.    
  2401.47     5860.    
  2405.01     5837.    
  2408.55     5814.    
  2412.09     5791.    
  2415.63     5769.    
  2419.17     5747.    
  2422.71     5725.    
  2426.25     5703.    
  2429.79     5682.    
  2433.33     5661.    
  2436.87     5640.    
  2440.41     5619.    
  2443.95     5599.    
  2447.49     5578.    
  2451.03     5558.    
  2454.57     5539.    
  2458.11     5519.    
  2461.65     5499.    
  2465.20     5480.    
  2468.74     5461.    
  2472.28     5442.    
  2475.82     5423.    
  2479.36     5405.    
  2482.90     5386.    
  2486.44     5368.    
  2489.98     5350.    
  2493.52     5332.    
  2497.06     5314.    
  2500.60     5296.    
  2504.14     5279.    
  2507.68     5261.    
  2511.22     5244.    
  2514.76     5227.    
  2518.30     5210.    
  2521.84     5193.    
  2525.38     5176.    
  2528.92     5160.    
  2532.46     5143.    
  2536.00     5127.    
  2539.55     5110.    
  2543.09     5094.    
  2546.63     5078.    
  2550.17     5062.    
  2553.71     5046.    
  2557.25     5030.    
  2560.79     5015.    
  2564.33     4999.    
  2567.87     4983.    
  2571.41     4968.    
  2574.95     4953.    
  2578.49     4938.    
  2582.03     4922.    
  2585.57     4907.    
  2589.11     4893.    
  2592.65     4878.    
  2596.19     4863.    
  2599.73     4848.    
  2603.27     4834.    
  2606.81     4819.    
  2610.35     4805.    
  2613.90     4791.    
  2617.44     4776.    
  2620.98     4762.    
  2624.52     4748.    
  2628.06     4734.    
  2631.60     4720.    
  2635.14     4706.    
  2638.68     4692.    
  2642.22     4679.    
  2645.76     4665.    
  2649.30     4652.    
  2652.84     4638.    
  2656.38     4625.    
  2659.92     4611.    
  2663.46     4598.    
  2667.00     4585.    
  2670.54     4572.    
  2674.08     4559.    
  2677.62     4546.    
  2681.16     4533.    
  2684.70     4520.    
  2688.25     4507.    
  2691.79     4495.    
  2695.33     4482.    
  2698.87     4469.    
  2702.41     4457.    
  2705.95     4444.    
  2709.49     4432.    
  2713.03     4420.    
  2716.57     4407.    
  2720.11     4395.    
  2723.65     4383.    
  2727.19     4371.    
  2730.73     4359.    
  2734.27     4347.    
  2737.81     4335.    
  2741.35     4323.    
  2744.89     4311.    
  2748.43     4300.    
  2751.97     4288.    
  2755.51     4276.    
  2759.05     4265.    
  2762.60     4253.    
  2766.14     4242.    
  2769.68     4230.    
  2773.22     4219.    
  2776.76     4208.    
  2780.30     4197.    
  2783.84     4185.    
  2787.38     4174.    
  2790.92     4163.    
  2794.46     4152.    
  2798.00     4141.    
  2801.54     4130.    
  2805.08     4119.    
  2808.62     4109.    
  2812.16     4098.    
  2815.70     4087.    
  2819.24     4076.    
  2822.78     4066.    
  2826.32     4055.    
  2829.86     4045.    
  2833.40     4034.    
  2836.95     4024.    
  2840.49     4014.    
  2844.03     4003.    
  2847.57     3993.    
  2851.11     3983.    
  2854.65     3973.    
  2858.19     3962.    
  2861.73     3952.    
  2865.27     3942.    
  2868.81     3932.    
  2872.35     3923.    
  2875.89     3913.    
  2879.43     3903.    
  2882.97     3893.    
  2886.51     3883.    
  2890.05     3874.    
  2893.59     3864.    
  2897.13     3854.    
  2900.67     3845.    
  2904.21     3835.    
  2907.75     3826.    
  2911.30     3817.    
  2914.84     3807.    
  2918.38     3798.    
  2921.92     3789.    
  2925.46     3779.    
  2929.00     3770.    
  2932.54     3761.    
  2936.08     3752.    
  2939.62     3743.    
  2943.16     3734.    
  2946.70     3725.    
  2950.24     3716.    
  2953.78     3707.    
  2957.32     3699.    
  2960.86     3690.    
  2964.40     3681.    
  2967.94     3672.    
  2971.48     3664.    
  2975.02     3655.    
  2978.56     3647.    
  2982.10     3638.    
  2985.65     3630.    
  2989.19     3622.    
  2992.73     3613.    
  2996.27     3605.    
  2999.81     3597.    
  3003.35     3589.    
  3006.89     3580.    
  3010.43     3572.    
  3013.97     3564.    
  3017.51     3556.    
  3021.05     3548.    
  3024.59     3541.    
  3028.13     3533.    
  3031.67     3525.    
  3035.21     3517.    
  3038.75     3510.    
  3042.29     3502.    
  3045.83     3494.    
  3049.37     3487.    
  3052.91     3479.    
  3056.46     3472.    
  3060.00     3465.    
  3063.54     3457.    
  3067.08     3450.    
  3070.62     3443.    
  3074.16     3436.    
  3077.70     3429.    
  3081.24     3422.    
  3084.78     3415.    
  3088.32     3408.    
  3091.86     3402.    
  3095.40     3395.    
  3098.94     3388.    
  3102.48     3382.    
  3106.02     3375.    
  3109.56     3369.    
  3113.10     3362.    
  3116.64     3356.    
  3120.18     3350.    
  3123.72     3344.    
  3127.26     3338.    
  3130.81     3332.    
  3134.35     3326.    
  3137.89     3321.    
  3141.43     3315.    
  3144.97     3310.    
  3148.51     3304.    
  3152.05     3299.    
  3155.59     3294.    
  3159.13     3289.    
  3162.67     3284.    
  3166.21     3279.    
  3169.75     3274.    
  3173.29     3270.    
  3176.83     3265.    
  3180.37     3261.    
  3183.91     3257.    
  3187.45     3253.    
  3190.99     3249.    
  3194.53     3246.    
  3198.07     3242.    
  3201.61     3239.    
  3205.16     3236.    
  3208.70     3234.    
  3212.24     3231.    
  3215.78     3229.    
  3219.32     3227.    
  3222.86     3225.    
  3226.40     3224.    
  3229.94     3223.    
  3233.48     3223.    
  3237.02     3222.    
  3240.56     3222.    
  3244.10     3223.    
  3247.64     3224.    
  3251.18     3226.    
  3254.72     3228.    
  3258.26     3230.    
  3261.80     3234.    
  3265.34     3238.    
  3268.88     3242.    
  3272.42     3248.    
  3275.96     3254.    
  3279.51     3262.    
  3283.05     3270.    
  3286.59     3280.    
  3290.13     3291.    
  3293.67     3303.    
  3297.21     3317.    
  3300.75     3332.    
  3304.29     3350.    
  3307.83     3370.    
  3311.37     3392.    
  3314.91     3416.    
  3318.45     3444.    
  3321.99     3476.    
  3325.53     3511.    
  3329.07     3551.    
  3332.61     3596.    
  3336.15     3647.    
  3339.69     3705.    
  3343.23     3771.    
  3346.77     3847.    
  3350.31     3934.    
  3353.86     4035.    
  3357.40     4151.    
  3360.94     4287.    
  3364.48     4447.    
  3368.02     4637.    
  3371.56     4862.    
  3375.10     5135.    
  3378.64     5466.    
  3382.18     5875.    
  3385.72     6386.    
  3389.26     7034.    
  3392.80     7871.    
  3396.34     8975.    
  3399.88    0.1047E+05
  3403.42    0.1253E+05
  3406.96    0.1548E+05
  3410.50    0.1982E+05
  3414.04    0.2635E+05
  3417.58    0.3616E+05
  3421.12    0.4981E+05
  3424.66    0.6398E+05
  3428.21    0.6889E+05
  3431.75    0.5994E+05
  3435.29    0.4547E+05
  3438.83    0.3301E+05
  3442.37    0.2425E+05
  3445.91    0.1841E+05
  3449.45    0.1450E+05
  3452.99    0.1182E+05
  3456.53     9917.    
  3460.07     8535.    
  3463.61     7501.    
  3467.15     6711.    
  3470.69     6093.    
  3474.23     5602.    
  3477.77     5205.    
  3481.31     4880.    
  3484.85     4610.    
  3488.39     4383.    
  3491.93     4191.    
  3495.47     4027.    
