
 ------------------------------------------------------------
     normal          Raman Scattering Plot
 ------------------------------------------------------------
 Excitation wavelength  514.50 nm
 Convolution lineshape is lorentzian  
 FWHM   20.00  1/cm
 ------------------------------------------------------------
 ------------------------------------------------------------
 # of frequencies :    84
 ------------------------------------------------------------
 #  freq [ 1/cm]  S [Ang**4/amu]
 ------------------------------------------------------------
   1    28.59 18734657.5280
   2    41.33 13276953.9272
   3    43.74   514847.6772
   4    60.11  2014500.2052
   5    62.50 19295395.9443
   6    81.99120202358.3096
   7    82.29104036820.0288
   8   105.19289273661.2063
   9   105.92  1045769.2889
  10   130.22  6707355.5326
  11   131.93  2951701.5356
  12   132.68 16588634.2321
  13   161.15228515583.7621
  14   161.56  3915037.1863
  15   193.29  4602942.5212
  16   193.39  2046882.9184
  17   227.48220090382.3608
  18   227.59 52655130.3676
  19   263.11 20924077.6193
  20   263.25 63836657.3678
  21   266.47 75227897.8173
  22   299.50136224833.5540
  23   299.60563383404.4268
  24   335.76 46530560.7583
  25   335.97283180638.5229
  26   368.18 28506737.1206
  27   368.41271355303.3411
  28   403.56  1811853.2925
  29   417.72134086110.6692
  30   417.86487942643.7355
  31   449.59231077538.8555
  32   449.65 11473036.6124
  33   479.99  8487165.4525
  34   480.07167275346.0214
  35   509.60 11021018.8545
  36   509.66 14079190.1172
  37   531.39 52026654.6783
  38   539.02 55982429.9923
  39   539.09 46010704.9616
  40   568.54 59292730.5288
  41   568.60 20051911.2418
  42   597.38  7446378.2036
  43   597.45 25810652.7553
  44   623.20312789858.5244
  45   623.58 57547492.3269
  46   643.38186122155.6760
  47   643.46117211244.8286
  48   660.55118489761.5417
  49   661.33 30982100.4016
  50   667.96  6224755.1223
  51   680.73  6781627.2180
  52   680.84314374219.2343
  53   703.63  6327364.3673
  54   703.85  8958422.6905
  55   730.47 14231353.9002
  56   730.53  3137555.1405
  57   764.76   746612.3155
  58   764.81 32780927.9181
  59   795.12   887431.6880
  60   807.16  1993031.4197
  61   807.22 40141259.7019
  62   919.00 10730762.6316
  63  1038.86 41602237.0115
  64  1153.35 16545367.2938
  65  1262.32172859314.1701
  66  1363.58264955606.9065
  67  1455.12325070493.6687
  68  1535.19**************
  69  1712.78 54218439.9832
  70  1880.73 33992179.1998
  71  1891.31 94357511.2962
  72  1919.77 23645847.1364
  73  1955.92 37123768.3344
  74  1991.01 27023360.5597
  75  1998.59187447429.7752
  76  2029.77101719581.5646
  77  2063.17 28006937.7491
  78  2064.97  8244567.0582
  79  2089.29 45276101.5087
  80  2094.30  7960183.3493
  81  2110.66 17418626.2089
  82  2113.13 10590234.9012
  83  3428.42 62703749.7324
  84  3431.91  6900987.0704
 ------------------------------------------------------------
   -27.89    0.8810E+06
   -24.36    0.9686E+06
   -20.83    0.1072E+07
   -17.31    0.1195E+07
   -13.78    0.1343E+07
   -10.25    0.1524E+07
    -6.73    0.1750E+07
    -3.20    0.2037E+07
     0.33    0.2410E+07
     3.85    0.2907E+07
     7.38    0.3592E+07
    10.91    0.4563E+07
    14.43    0.5983E+07
    17.96    0.8083E+07
    21.49    0.1106E+08
    25.02    0.1453E+08
    28.54    0.1673E+08
    32.07    0.1623E+08
    35.60    0.1453E+08
    39.12    0.1318E+08
    42.65    0.1190E+08
    46.18    0.1041E+08
    49.70    0.9288E+07
    53.23    0.8960E+07
    56.76    0.9430E+07
    60.28    0.1039E+08
    63.81    0.1136E+08
    67.34    0.1243E+08
    70.86    0.1444E+08
    74.39    0.1801E+08
    77.92    0.2279E+08
    81.45    0.2619E+08
    84.97    0.2523E+08
    88.50    0.2159E+08
    92.03    0.1880E+08
    95.55    0.1822E+08
    99.08    0.1979E+08
   102.61    0.2211E+08
   106.13    0.2210E+08
   109.66    0.1859E+08
   113.19    0.1411E+08
   116.71    0.1058E+08
   120.24    0.8232E+07
   123.77    0.6781E+07
   127.29    0.5931E+07
   130.82    0.5389E+07
   134.35    0.4903E+07
   137.87    0.4461E+07
   141.40    0.4211E+07
   144.93    0.4256E+07
   148.46    0.4663E+07
   151.98    0.5514E+07
   155.51    0.6801E+07
   159.04    0.8017E+07
   162.56    0.8062E+07
   166.09    0.6758E+07
   169.62    0.5165E+07
   173.14    0.3927E+07
   176.67    0.3091E+07
   180.20    0.2544E+07
   183.72    0.2193E+07
   187.25    0.1976E+07
   190.78    0.1845E+07
   194.30    0.1760E+07
   197.83    0.1702E+07
   201.36    0.1693E+07
   204.88    0.1758E+07
   208.41    0.1921E+07
   211.94    0.2218E+07
   215.47    0.2709E+07
   218.99    0.3468E+07
   222.52    0.4464E+07
   226.05    0.5275E+07
   229.57    0.5191E+07
   233.10    0.4314E+07
   236.63    0.3371E+07
   240.15    0.2702E+07
   243.68    0.2308E+07
   247.21    0.2131E+07
   250.73    0.2134E+07
   254.26    0.2314E+07
   257.79    0.2665E+07
   261.31    0.3085E+07
   264.84    0.3306E+07
   268.37    0.3167E+07
   271.90    0.2862E+07
   275.42    0.2666E+07
   278.95    0.2692E+07
   282.48    0.2978E+07
   286.00    0.3583E+07
   289.53    0.4609E+07
   293.06    0.6112E+07
   296.58    0.7735E+07
   300.11    0.8338E+07
   303.64    0.7296E+07
   307.16    0.5626E+07
   310.69    0.4264E+07
   314.22    0.3384E+07
   317.74    0.2898E+07
   321.27    0.2719E+07
   324.80    0.2815E+07
   328.32    0.3181E+07
   331.85    0.3724E+07
   335.38    0.4063E+07
   338.91    0.3782E+07
   342.43    0.3120E+07
   345.96    0.2533E+07
   349.49    0.2175E+07
   353.01    0.2037E+07
   356.54    0.2103E+07
   360.07    0.2375E+07
   363.59    0.2809E+07
   367.12    0.3152E+07
   370.65    0.3029E+07
   374.17    0.2518E+07
   377.70    0.1996E+07
   381.23    0.1628E+07
   384.75    0.1406E+07
   388.28    0.1296E+07
   391.81    0.1274E+07
   395.34    0.1335E+07
   398.86    0.1491E+07
   402.39    0.1772E+07
   405.92    0.2231E+07
   409.44    0.2933E+07
   412.97    0.3847E+07
   416.50    0.4569E+07
   420.02    0.4457E+07
   423.55    0.3640E+07
   427.08    0.2784E+07
   430.60    0.2187E+07
   434.13    0.1850E+07
   437.66    0.1725E+07
   441.18    0.1780E+07
   444.71    0.1971E+07
   448.24    0.2136E+07
   451.76    0.2037E+07
   455.29    0.1710E+07
   458.82    0.1386E+07
   462.35    0.1173E+07
   465.87    0.1074E+07
   469.40    0.1078E+07
   472.93    0.1179E+07
   476.45    0.1332E+07
   479.98    0.1398E+07
   483.51    0.1262E+07
   487.03    0.1023E+07
   490.56    0.8166E+06
   494.09    0.6761E+06
   497.61    0.5914E+06
   501.14    0.5488E+06
   504.67    0.5369E+06
   508.19    0.5379E+06
   511.72    0.5296E+06
   515.25    0.5157E+06
   518.77    0.5205E+06
   522.30    0.5603E+06
   525.83    0.6403E+06
   529.36    0.7476E+06
   532.88    0.8434E+06
   536.41    0.8949E+06
   539.94    0.8663E+06
   543.46    0.7520E+06
   546.99    0.6243E+06
   550.52    0.5350E+06
   554.04    0.4913E+06
   557.57    0.4892E+06
   561.10    0.5249E+06
   564.62    0.5845E+06
   568.15    0.6208E+06
   571.68    0.5870E+06
   575.20    0.5139E+06
   578.73    0.4531E+06
   582.26    0.4213E+06
   585.79    0.4175E+06
   589.31    0.4391E+06
   592.84    0.4823E+06
   596.37    0.5330E+06
   599.89    0.5739E+06
   603.42    0.6186E+06
   606.95    0.7009E+06
   610.47    0.8491E+06
   614.00    0.1088E+07
   617.53    0.1423E+07
   621.05    0.1755E+07
   624.58    0.1861E+07
   628.11    0.1706E+07
   631.63    0.1531E+07
   635.16    0.1497E+07
   638.69    0.1606E+07
   642.21    0.1723E+07
   645.74    0.1660E+07
   649.27    0.1459E+07
   652.80    0.1301E+07
   656.32    0.1250E+07
   659.85    0.1243E+07
   663.38    0.1188E+07
   666.90    0.1115E+07
   670.43    0.1110E+07
   673.96    0.1211E+07
   677.48    0.1373E+07
   681.01    0.1427E+07
   684.54    0.1250E+07
   688.06    0.9698E+06
   691.59    0.7331E+06
   695.12    0.5708E+06
   698.64    0.4666E+06
   702.17    0.3972E+06
   705.70    0.3416E+06
   709.23    0.2926E+06
   712.75    0.2537E+06
   716.28    0.2265E+06
   719.81    0.2098E+06
   723.33    0.2022E+06
   726.86    0.2002E+06
   730.39    0.1956E+06
   733.91    0.1812E+06
   737.44    0.1627E+06
   740.97    0.1477E+06
   744.49    0.1384E+06
   748.02    0.1347E+06
   751.55    0.1370E+06
   755.07    0.1461E+06
   758.60    0.1623E+06
   762.13    0.1798E+06
   765.65    0.1827E+06
   769.18    0.1648E+06
   772.71    0.1405E+06
   776.24    0.1212E+06
   779.76    0.1089E+06
   783.29    0.1022E+06
   786.82    0.1003E+06
   790.34    0.1029E+06
   793.87    0.1107E+06
   797.40    0.1247E+06
   800.92    0.1459E+06
   804.45    0.1681E+06
   807.98    0.1731E+06
   811.50    0.1530E+06
   815.03    0.1243E+06
   818.56    0.1007E+06
   822.08    0.8416E+05
   825.61    0.7282E+05
   829.14    0.6488E+05
   832.66    0.5912E+05
   836.19    0.5478E+05
   839.72    0.5140E+05
   843.25    0.4868E+05
   846.77    0.4645E+05
   850.30    0.4457E+05
   853.83    0.4297E+05
   857.35    0.4159E+05
   860.88    0.4038E+05
   864.41    0.3932E+05
   867.93    0.3839E+05
   871.46    0.3757E+05
   874.99    0.3687E+05
   878.51    0.3627E+05
   882.04    0.3579E+05
   885.57    0.3544E+05
   889.09    0.3526E+05
   892.62    0.3528E+05
   896.15    0.3560E+05
   899.68    0.3635E+05
   903.20    0.3776E+05
   906.73    0.4019E+05
   910.26    0.4405E+05
   913.78    0.4927E+05
   917.31    0.5365E+05
   920.84    0.5311E+05
   924.36    0.4780E+05
   927.89    0.4181E+05
   931.42    0.3720E+05
   934.94    0.3401E+05
   938.47    0.3180E+05
   942.00    0.3023E+05
   945.52    0.2907E+05
   949.05    0.2818E+05
   952.58    0.2748E+05
   956.10    0.2692E+05
   959.63    0.2646E+05
   963.16    0.2609E+05
   966.69    0.2578E+05
   970.21    0.2554E+05
   973.74    0.2536E+05
   977.27    0.2524E+05
   980.79    0.2519E+05
   984.32    0.2520E+05
   987.85    0.2530E+05
   991.37    0.2550E+05
   994.90    0.2582E+05
   998.43    0.2630E+05
  1001.95    0.2699E+05
  1005.48    0.2796E+05
  1009.01    0.2934E+05
  1012.53    0.3129E+05
  1016.06    0.3412E+05
  1019.59    0.3829E+05
  1023.12    0.4458E+05
  1026.64    0.5416E+05
  1030.17    0.6846E+05
  1033.70    0.8717E+05
  1037.22    0.1029E+06
  1040.75    0.1020E+06
  1044.28    0.8537E+05
  1047.80    0.6656E+05
  1051.33    0.5233E+05
  1054.86    0.4274E+05
  1058.38    0.3635E+05
  1061.91    0.3201E+05
  1065.44    0.2896E+05
  1068.96    0.2677E+05
  1072.49    0.2514E+05
  1076.02    0.2390E+05
  1079.54    0.2294E+05
  1083.07    0.2219E+05
  1086.60    0.2160E+05
  1090.13    0.2113E+05
  1093.65    0.2077E+05
  1097.18    0.2049E+05
  1100.71    0.2028E+05
  1104.23    0.2015E+05
  1107.76    0.2009E+05
  1111.29    0.2011E+05
  1114.81    0.2022E+05
  1118.34    0.2044E+05
  1121.87    0.2080E+05
  1125.39    0.2135E+05
  1128.92    0.2216E+05
  1132.45    0.2337E+05
  1135.97    0.2520E+05
  1139.50    0.2798E+05
  1143.03    0.3220E+05
  1146.55    0.3819E+05
  1150.08    0.4478E+05
  1153.61    0.4769E+05
  1157.14    0.4403E+05
  1160.66    0.3745E+05
  1164.19    0.3184E+05
  1167.72    0.2800E+05
  1171.24    0.2554E+05
  1174.77    0.2399E+05
  1178.30    0.2304E+05
  1181.82    0.2248E+05
  1185.35    0.2222E+05
  1188.88    0.2218E+05
  1192.40    0.2232E+05
  1195.93    0.2262E+05
  1199.46    0.2310E+05
  1202.98    0.2374E+05
  1206.51    0.2458E+05
  1210.04    0.2565E+05
  1213.57    0.2699E+05
  1217.09    0.2868E+05
  1220.62    0.3082E+05
  1224.15    0.3355E+05
  1227.67    0.3710E+05
  1231.20    0.4178E+05
  1234.73    0.4810E+05
  1238.25    0.5684E+05
  1241.78    0.6929E+05
  1245.31    0.8754E+05
  1248.83    0.1149E+06
  1252.36    0.1561E+06
  1255.89    0.2134E+06
  1259.41    0.2734E+06
  1262.94    0.2942E+06
  1266.47    0.2547E+06
  1269.99    0.1927E+06
  1273.52    0.1414E+06
  1277.05    0.1062E+06
  1280.58    0.8308E+05
  1284.10    0.6782E+05
  1287.63    0.5757E+05
  1291.16    0.5056E+05
  1294.68    0.4575E+05
  1298.21    0.4248E+05
  1301.74    0.4035E+05
  1305.26    0.3912E+05
  1308.79    0.3864E+05
  1312.32    0.3885E+05
  1315.84    0.3974E+05
  1319.37    0.4135E+05
  1322.90    0.4380E+05
  1326.42    0.4728E+05
  1329.95    0.5210E+05
  1333.48    0.5875E+05
  1337.01    0.6800E+05
  1340.53    0.8110E+05
  1344.06    0.1001E+06
  1347.59    0.1283E+06
  1351.11    0.1709E+06
  1354.64    0.2344E+06
  1358.17    0.3186E+06
  1361.69    0.3930E+06
  1365.22    0.3966E+06
  1368.75    0.3259E+06
  1372.27    0.2416E+06
  1375.80    0.1772E+06
  1379.33    0.1340E+06
  1382.85    0.1057E+06
  1386.38    0.8712E+05
  1389.91    0.7465E+05
  1393.43    0.6625E+05
  1396.96    0.6067E+05
  1400.49    0.5714E+05
  1404.02    0.5522E+05
  1407.54    0.5465E+05
  1411.07    0.5533E+05
  1414.60    0.5729E+05
  1418.12    0.6067E+05
  1421.65    0.6578E+05
  1425.18    0.7316E+05
  1428.70    0.8366E+05
  1432.23    0.9870E+05
  1435.76    0.1206E+06
  1439.28    0.1533E+06
  1442.81    0.2027E+06
  1446.34    0.2759E+06
  1449.86    0.3720E+06
  1453.39    0.4545E+06
  1456.92    0.4549E+06
  1460.44    0.3743E+06
  1463.97    0.2814E+06
  1467.50    0.2118E+06
  1471.03    0.1663E+06
  1474.55    0.1377E+06
  1478.08    0.1202E+06
  1481.61    0.1103E+06
  1485.13    0.1057E+06
  1488.66    0.1054E+06
  1492.19    0.1090E+06
  1495.71    0.1165E+06
  1499.24    0.1284E+06
  1502.77    0.1459E+06
  1506.29    0.1708E+06
  1509.82    0.2063E+06
  1513.35    0.2575E+06
  1516.87    0.3329E+06
  1520.40    0.4464E+06
  1523.93    0.6187E+06
  1527.46    0.8699E+06
  1530.98    0.1174E+07
  1534.51    0.1372E+07
  1538.04    0.1275E+07
  1541.56    0.9829E+06
  1545.09    0.7014E+06
  1548.62    0.4989E+06
  1552.14    0.3641E+06
  1555.67    0.2743E+06
  1559.20    0.2131E+06
  1562.72    0.1701E+06
  1566.25    0.1390E+06
  1569.78    0.1159E+06
  1573.30    0.9828E+05
  1576.83    0.8460E+05
  1580.36    0.7377E+05
  1583.88    0.6505E+05
  1587.41    0.5794E+05
  1590.94    0.5206E+05
  1594.47    0.4715E+05
  1597.99    0.4300E+05
  1601.52    0.3947E+05
  1605.05    0.3644E+05
  1608.57    0.3382E+05
  1612.10    0.3155E+05
  1615.63    0.2956E+05
  1619.15    0.2781E+05
  1622.68    0.2627E+05
  1626.21    0.2491E+05
  1629.73    0.2370E+05
  1633.26    0.2263E+05
  1636.79    0.2169E+05
  1640.31    0.2085E+05
  1643.84    0.2011E+05
  1647.37    0.1946E+05
  1650.90    0.1890E+05
  1654.42    0.1843E+05
  1657.95    0.1804E+05
  1661.48    0.1775E+05
  1665.00    0.1755E+05
  1668.53    0.1746E+05
  1672.06    0.1751E+05
  1675.58    0.1771E+05
  1679.11    0.1813E+05
  1682.64    0.1882E+05
  1686.16    0.1992E+05
  1689.69    0.2160E+05
  1693.22    0.2418E+05
  1696.74    0.2814E+05
  1700.27    0.3427E+05
  1703.80    0.4353E+05
  1707.32    0.5592E+05
  1710.85    0.6695E+05
  1714.38    0.6740E+05
  1717.91    0.5659E+05
  1721.43    0.4364E+05
  1724.96    0.3366E+05
  1728.49    0.2688E+05
  1732.01    0.2235E+05
  1735.54    0.1926E+05
  1739.07    0.1709E+05
  1742.59    0.1551E+05
  1746.12    0.1433E+05
  1749.65    0.1343E+05
  1753.17    0.1272E+05
  1756.70    0.1216E+05
  1760.23    0.1170E+05
  1763.75    0.1133E+05
  1767.28    0.1102E+05
  1770.81    0.1077E+05
  1774.34    0.1056E+05
  1777.86    0.1039E+05
  1781.39    0.1025E+05
  1784.92    0.1015E+05
  1788.44    0.1007E+05
  1791.97    0.1001E+05
  1795.50     9985.    
  1799.02     9983.    
  1802.55    0.1001E+05
  1806.08    0.1006E+05
  1809.60    0.1014E+05
  1813.13    0.1025E+05
  1816.66    0.1041E+05
  1820.18    0.1060E+05
  1823.71    0.1084E+05
  1827.24    0.1115E+05
  1830.76    0.1152E+05
  1834.29    0.1198E+05
  1837.82    0.1255E+05
  1841.35    0.1327E+05
  1844.87    0.1417E+05
  1848.40    0.1532E+05
  1851.93    0.1681E+05
  1855.45    0.1878E+05
  1858.98    0.2144E+05
  1862.51    0.2513E+05
  1866.03    0.3041E+05
  1869.56    0.3811E+05
  1873.09    0.4924E+05
  1876.61    0.6409E+05
  1880.14    0.8016E+05
  1883.67    0.9446E+05
  1887.19    0.1077E+06
  1890.72    0.1142E+06
  1894.25    0.1036E+06
  1897.77    0.8262E+05
  1901.30    0.6399E+05
  1904.83    0.5176E+05
  1908.36    0.4522E+05
  1911.88    0.4314E+05
  1915.41    0.4404E+05
  1918.94    0.4482E+05
  1922.46    0.4198E+05
  1925.99    0.3667E+05
  1929.52    0.3210E+05
  1933.04    0.2945E+05
  1936.57    0.2869E+05
  1940.10    0.2971E+05
  1943.62    0.3269E+05
  1947.15    0.3802E+05
  1950.68    0.4553E+05
  1954.20    0.5244E+05
  1957.73    0.5358E+05
  1961.26    0.4916E+05
  1964.79    0.4457E+05
  1968.31    0.4276E+05
  1971.84    0.4422E+05
  1975.37    0.4913E+05
  1978.89    0.5821E+05
  1982.42    0.7294E+05
  1985.95    0.9519E+05
  1989.47    0.1255E+06
  1993.00    0.1603E+06
  1996.53    0.1884E+06
  2000.05    0.1879E+06
  2003.58    0.1573E+06
  2007.11    0.1221E+06
  2010.63    0.9708E+05
  2014.16    0.8377E+05
  2017.69    0.8055E+05
  2021.21    0.8640E+05
  2024.74    0.9932E+05
  2028.27    0.1106E+06
  2031.80    0.1064E+06
  2035.32    0.8788E+05
  2038.85    0.6848E+05
  2042.38    0.5454E+05
  2045.90    0.4610E+05
  2049.43    0.4201E+05
  2052.96    0.4158E+05
  2056.48    0.4441E+05
  2060.01    0.4910E+05
  2063.54    0.5148E+05
  2067.06    0.4836E+05
  2070.59    0.4294E+05
  2074.12    0.3952E+05
  2077.64    0.3970E+05
  2081.17    0.4378E+05
  2084.70    0.5098E+05
  2088.23    0.5722E+05
  2091.75    0.5661E+05
  2095.28    0.4993E+05
  2098.81    0.4276E+05
  2102.33    0.3855E+05
  2105.86    0.3776E+05
  2109.39    0.3823E+05
  2112.91    0.3618E+05
  2116.44    0.3068E+05
  2119.97    0.2447E+05
  2123.49    0.1954E+05
  2127.02    0.1605E+05
  2130.55    0.1361E+05
  2134.07    0.1187E+05
  2137.60    0.1058E+05
  2141.13     9602.    
  2144.65     8833.    
  2148.18     8215.    
  2151.71     7707.    
  2155.24     7283.    
  2158.76     6922.    
  2162.29     6612.    
  2165.82     6342.    
  2169.34     6104.    
  2172.87     5893.    
  2176.40     5705.    
  2179.92     5535.    
  2183.45     5381.    
  2186.98     5241.    
  2190.50     5112.    
  2194.03     4994.    
  2197.56     4885.    
  2201.08     4784.    
  2204.61     4689.    
  2208.14     4601.    
  2211.66     4519.    
  2215.19     4441.    
  2218.72     4368.    
  2222.25     4299.    
  2225.77     4234.    
  2229.30     4172.    
  2232.83     4114.    
  2236.35     4058.    
  2239.88     4005.    
  2243.41     3954.    
  2246.93     3905.    
  2250.46     3858.    
  2253.99     3814.    
  2257.51     3771.    
  2261.04     3730.    
  2264.57     3690.    
  2268.09     3651.    
  2271.62     3615.    
  2275.15     3579.    
  2278.68     3544.    
  2282.20     3511.    
  2285.73     3479.    
  2289.26     3447.    
  2292.78     3417.    
  2296.31     3387.    
  2299.84     3358.    
  2303.36     3331.    
  2306.89     3303.    
  2310.42     3277.    
  2313.94     3251.    
  2317.47     3226.    
  2321.00     3201.    
  2324.52     3178.    
  2328.05     3154.    
  2331.58     3131.    
  2335.10     3109.    
  2338.63     3087.    
  2342.16     3066.    
  2345.69     3045.    
  2349.21     3024.    
  2352.74     3004.    
  2356.27     2985.    
  2359.79     2965.    
  2363.32     2947.    
  2366.85     2928.    
  2370.37     2910.    
  2373.90     2892.    
  2377.43     2874.    
  2380.95     2857.    
  2384.48     2840.    
  2388.01     2823.    
  2391.53     2807.    
  2395.06     2791.    
  2398.59     2775.    
  2402.12     2759.    
  2405.64     2744.    
  2409.17     2729.    
  2412.70     2714.    
  2416.22     2699.    
  2419.75     2685.    
  2423.28     2670.    
  2426.80     2656.    
  2430.33     2642.    
  2433.86     2629.    
  2437.38     2615.    
  2440.91     2602.    
  2444.44     2589.    
  2447.96     2576.    
  2451.49     2563.    
  2455.02     2550.    
  2458.54     2538.    
  2462.07     2525.    
  2465.60     2513.    
  2469.13     2501.    
  2472.65     2489.    
  2476.18     2477.    
  2479.71     2466.    
  2483.23     2454.    
  2486.76     2443.    
  2490.29     2432.    
  2493.81     2420.    
  2497.34     2409.    
  2500.87     2399.    
  2504.39     2388.    
  2507.92     2377.    
  2511.45     2367.    
  2514.97     2356.    
  2518.50     2346.    
  2522.03     2336.    
  2525.55     2326.    
  2529.08     2315.    
  2532.61     2306.    
  2536.14     2296.    
  2539.66     2286.    
  2543.19     2276.    
  2546.72     2267.    
  2550.24     2257.    
  2553.77     2248.    
  2557.30     2239.    
  2560.82     2229.    
  2564.35     2220.    
  2567.88     2211.    
  2571.40     2202.    
  2574.93     2193.    
  2578.46     2185.    
  2581.98     2176.    
  2585.51     2167.    
  2589.04     2159.    
  2592.57     2150.    
  2596.09     2142.    
  2599.62     2133.    
  2603.15     2125.    
  2606.67     2117.    
  2610.20     2109.    
  2613.73     2101.    
  2617.25     2093.    
  2620.78     2085.    
  2624.31     2077.    
  2627.83     2069.    
  2631.36     2061.    
  2634.89     2053.    
  2638.41     2046.    
  2641.94     2038.    
  2645.47     2031.    
  2648.99     2023.    
  2652.52     2016.    
  2656.05     2008.    
  2659.58     2001.    
  2663.10     1994.    
  2666.63     1987.    
  2670.16     1979.    
  2673.68     1972.    
  2677.21     1965.    
  2680.74     1958.    
  2684.26     1951.    
  2687.79     1944.    
  2691.32     1937.    
  2694.84     1931.    
  2698.37     1924.    
  2701.90     1917.    
  2705.42     1911.    
  2708.95     1904.    
  2712.48     1897.    
  2716.01     1891.    
  2719.53     1884.    
  2723.06     1878.    
  2726.59     1871.    
  2730.11     1865.    
  2733.64     1859.    
  2737.17     1853.    
  2740.69     1846.    
  2744.22     1840.    
  2747.75     1834.    
  2751.27     1828.    
  2754.80     1822.    
  2758.33     1816.    
  2761.85     1810.    
  2765.38     1804.    
  2768.91     1798.    
  2772.43     1792.    
  2775.96     1786.    
  2779.49     1780.    
  2783.02     1774.    
  2786.54     1769.    
  2790.07     1763.    
  2793.60     1757.    
  2797.12     1752.    
  2800.65     1746.    
  2804.18     1741.    
  2807.70     1735.    
  2811.23     1730.    
  2814.76     1724.    
  2818.28     1719.    
  2821.81     1713.    
  2825.34     1708.    
  2828.86     1703.    
  2832.39     1697.    
  2835.92     1692.    
  2839.44     1687.    
  2842.97     1682.    
  2846.50     1676.    
  2850.03     1671.    
  2853.55     1666.    
  2857.08     1661.    
  2860.61     1656.    
  2864.13     1651.    
  2867.66     1646.    
  2871.19     1641.    
  2874.71     1636.    
  2878.24     1631.    
  2881.77     1626.    
  2885.29     1622.    
  2888.82     1617.    
  2892.35     1612.    
  2895.87     1607.    
  2899.40     1602.    
  2902.93     1598.    
  2906.46     1593.    
  2909.98     1588.    
  2913.51     1584.    
  2917.04     1579.    
  2920.56     1575.    
  2924.09     1570.    
  2927.62     1566.    
  2931.14     1561.    
  2934.67     1557.    
  2938.20     1552.    
  2941.72     1548.    
  2945.25     1543.    
  2948.78     1539.    
  2952.30     1535.    
  2955.83     1530.    
  2959.36     1526.    
  2962.88     1522.    
  2966.41     1518.    
  2969.94     1514.    
  2973.47     1509.    
  2976.99     1505.    
  2980.52     1501.    
  2984.05     1497.    
  2987.57     1493.    
  2991.10     1489.    
  2994.63     1485.    
  2998.15     1481.    
  3001.68     1477.    
  3005.21     1473.    
  3008.73     1469.    
  3012.26     1465.    
  3015.79     1461.    
  3019.31     1457.    
  3022.84     1454.    
  3026.37     1450.    
  3029.90     1446.    
  3033.42     1442.    
  3036.95     1439.    
  3040.48     1435.    
  3044.00     1431.    
  3047.53     1428.    
  3051.06     1424.    
  3054.58     1421.    
  3058.11     1417.    
  3061.64     1413.    
  3065.16     1410.    
  3068.69     1407.    
  3072.22     1403.    
  3075.74     1400.    
  3079.27     1396.    
  3082.80     1393.    
  3086.32     1390.    
  3089.85     1386.    
  3093.38     1383.    
  3096.91     1380.    
  3100.43     1377.    
  3103.96     1374.    
  3107.49     1370.    
  3111.01     1367.    
  3114.54     1364.    
  3118.07     1361.    
  3121.59     1358.    
  3125.12     1355.    
  3128.65     1352.    
  3132.17     1350.    
  3135.70     1347.    
  3139.23     1344.    
  3142.75     1341.    
  3146.28     1338.    
  3149.81     1336.    
  3153.33     1333.    
  3156.86     1331.    
  3160.39     1328.    
  3163.92     1326.    
  3167.44     1323.    
  3170.97     1321.    
  3174.50     1318.    
  3178.02     1316.    
  3181.55     1314.    
  3185.08     1312.    
  3188.60     1310.    
  3192.13     1308.    
  3195.66     1306.    
  3199.18     1304.    
  3202.71     1302.    
  3206.24     1301.    
  3209.76     1299.    
  3213.29     1297.    
  3216.82     1296.    
  3220.35     1295.    
  3223.87     1294.    
  3227.40     1292.    
  3230.93     1292.    
  3234.45     1291.    
  3237.98     1290.    
  3241.51     1290.    
  3245.03     1289.    
  3248.56     1289.    
  3252.09     1289.    
  3255.61     1289.    
  3259.14     1290.    
  3262.67     1290.    
  3266.19     1291.    
  3269.72     1292.    
  3273.25     1294.    
  3276.77     1296.    
  3280.30     1298.    
  3283.83     1300.    
  3287.36     1303.    
  3290.88     1307.    
  3294.41     1311.    
  3297.94     1315.    
  3301.46     1320.    
  3304.99     1326.    
  3308.52     1333.    
  3312.04     1340.    
  3315.57     1349.    
  3319.10     1358.    
  3322.62     1369.    
  3326.15     1381.    
  3329.68     1395.    
  3333.20     1411.    
  3336.73     1429.    
  3340.26     1450.    
  3343.79     1473.    
  3347.31     1500.    
  3350.84     1530.    
  3354.37     1566.    
  3357.89     1607.    
  3361.42     1655.    
  3364.95     1712.    
  3368.47     1779.    
  3372.00     1859.    
  3375.53     1955.    
  3379.05     2072.    
  3382.58     2215.    
  3386.11     2394.    
  3389.63     2620.    
  3393.16     2911.    
  3396.69     3293.    
  3400.21     3805.    
  3403.74     4511.    
  3407.27     5510.    
  3410.80     6967.    
  3414.32     9149.    
  3417.85    0.1244E+05
  3421.38    0.1715E+05
  3424.90    0.2258E+05
  3428.43    0.2558E+05
  3431.96    0.2336E+05
  3435.48    0.1814E+05
  3439.01    0.1322E+05
  3442.54     9674.    
  3446.06     7304.    
  3449.59     5724.    
  3453.12     4645.    
  3456.64     3886.    
  3460.17     3337.    
  3463.70     2928.    
  3467.23     2616.    
  3470.75     2374.    
  3474.28     2182.    
  3477.81     2027.    
  3481.33     1901.    
  3484.86     1796.    
  3488.39     1708.    
  3491.91     1634.    
  3495.44     1571.    
