
 ------------------------------------------------------------
     normal          Raman Scattering Plot
 ------------------------------------------------------------
 Excitation wavelength  514.50 nm
 Convolution lineshape is lorentzian  
 FWHM   20.00  1/cm
 ------------------------------------------------------------
 ------------------------------------------------------------
 # of frequencies :    84
 ------------------------------------------------------------
 #  freq [ 1/cm]  S [Ang**4/amu]
 ------------------------------------------------------------
   1     1.54  9754591.0728
   2    11.98 20839993.9086
   3    14.59   641885.8979
   4    27.39 65293334.8848
   5    28.18 26516750.8256
   6    46.18 25821103.4058
   7    46.26  5166560.4148
   8    68.47  1041915.8297
   9    68.64 54721463.6660
  10    94.63 86814803.4796
  11    94.76  7473336.1347
  12   124.06 88748451.0870
  13   124.29 47624168.2398
  14   142.12 58178119.6118
  15   156.51 43971679.1515
  16   156.75  1579738.7864
  17   191.20 78106957.2430
  18   191.45 65977207.0390
  19   227.49  2160241.1273
  20   227.74 20250115.0551
  21   264.47 52081397.4253
  22   264.81127056027.9630
  23   279.41 50303932.0329
  24   301.53 24779230.1364
  25   301.89182593599.4853
  26   334.42321942221.8284
  27   334.77496445443.8717
  28   387.32143730872.8391
  29   387.50336551534.5067
  30   419.50  2376758.2222
  31   419.61 21018057.6113
  32   421.71 99214196.6579
  33   450.59 24441717.0033
  34   450.70 79457375.0791
  35   480.95 29794852.8808
  36   481.02 37102821.8899
  37   511.34  8038029.4505
  38   511.41 36470663.3484
  39   541.97 37169547.6235
  40   542.00175257726.6469
  41   558.92  3275015.8591
  42   572.59 44103021.5937
  43   572.62  1453159.6506
  44   602.05 79804157.5278
  45   602.07  8943941.5316
  46   628.60 53786558.7690
  47   628.64  5385021.0316
  48   650.74 72486755.0485
  49   650.81  5629979.7671
  50   668.78 10085785.4325
  51   668.84437298361.6791
  52   685.53230944183.1099
  53   685.56 19241944.6914
  54   694.71 23763863.1494
  55   708.67 34301710.3989
  56   708.70 38704250.8199
  57   742.67  5829367.9627
  58   742.70  7077931.8823
  59   786.27 37319639.8969
  60   786.33 76803159.3791
  61   827.11 62839568.4178
  62   956.88 75121811.2835
  63  1081.80 62051366.3055
  64  1202.34  1828223.3443
  65  1317.71200715153.3304
  66  1424.68 10874169.6229
  67  1522.37196030582.4101
  68  1608.04358400930.1045
  69  1792.73  5451742.0498
  70  1936.26286848280.0242
  71  1974.58300079613.8987
  72  1978.55**************
  73  2017.88370980728.8316
  74  2057.45150567745.8543
  75  2085.34 40639637.1121
  76  2101.87 21234769.7530
  77  2139.71339884563.4941
  78  2150.14 66103361.3023
  79  2169.72927914816.3018
  80  2181.42 62254868.6462
  81  2192.03 17223352.4694
  82  2195.97 30120274.3256
  83  3429.15 10528792.4973
  84  3430.82 10475471.7253
 ------------------------------------------------------------
   -54.91    0.7251E+08
   -51.35    0.8213E+08
   -47.80    0.9378E+08
   -44.25    0.1081E+09
   -40.70    0.1258E+09
   -37.14    0.1482E+09
   -33.59    0.1770E+09
   -30.04    0.2149E+09
   -26.48    0.2657E+09
   -22.93    0.3359E+09
   -19.38    0.4357E+09
   -15.83    0.5818E+09
   -12.27    0.8015E+09
    -8.72    0.1133E+10
    -5.17    0.1602E+10
    -1.61    0.2113E+10
     1.94    0.2330E+10
     5.49    0.2046E+10
     9.04    0.1554E+10
    12.60    0.1133E+10
    16.15    0.8319E+09
    19.70    0.6290E+09
    23.26    0.4979E+09
    26.81    0.4082E+09
    30.36    0.3335E+09
    33.91    0.2684E+09
    37.47    0.2173E+09
    41.02    0.1801E+09
    44.57    0.1526E+09
    48.13    0.1306E+09
    51.68    0.1121E+09
    55.23    0.9722E+08
    58.78    0.8588E+08
    62.34    0.7749E+08
    65.89    0.7104E+08
    69.44    0.6493E+08
    72.99    0.5836E+08
    76.55    0.5224E+08
    80.10    0.4735E+08
    83.65    0.4379E+08
    87.21    0.4145E+08
    90.76    0.3996E+08
    94.31    0.3828E+08
    97.86    0.3543E+08
   101.42    0.3203E+08
   104.97    0.2911E+08
   108.52    0.2698E+08
   112.08    0.2563E+08
   115.63    0.2501E+08
   119.18    0.2501E+08
   122.73    0.2497E+08
   126.29    0.2386E+08
   129.84    0.2184E+08
   133.39    0.1997E+08
   136.95    0.1868E+08
   140.50    0.1776E+08
   144.05    0.1677E+08
   147.60    0.1567E+08
   151.16    0.1474E+08
   154.71    0.1400E+08
   158.26    0.1320E+08
   161.82    0.1229E+08
   165.37    0.1146E+08
   168.92    0.1081E+08
   172.47    0.1035E+08
   176.03    0.1008E+08
   179.58    0.1001E+08
   183.13    0.1018E+08
   186.69    0.1054E+08
   190.24    0.1074E+08
   193.79    0.1030E+08
   197.34    0.9358E+07
   200.90    0.8434E+07
   204.45    0.7716E+07
   208.00    0.7186E+07
   211.56    0.6793E+07
   215.11    0.6498E+07
   218.66    0.6284E+07
   222.21    0.6134E+07
   225.77    0.6011E+07
   229.32    0.5848E+07
   232.87    0.5640E+07
   236.43    0.5448E+07
   239.98    0.5310E+07
   243.53    0.5236E+07
   247.08    0.5235E+07
   250.64    0.5330E+07
   254.19    0.5558E+07
   257.74    0.5948E+07
   261.29    0.6420E+07
   264.85    0.6644E+07
   268.40    0.6383E+07
   271.95    0.5930E+07
   275.51    0.5592E+07
   279.06    0.5368E+07
   282.61    0.5162E+07
   286.16    0.5014E+07
   289.72    0.5024E+07
   293.27    0.5238E+07
   296.82    0.5634E+07
   300.38    0.5994E+07
   303.93    0.5962E+07
   307.48    0.5592E+07
   311.03    0.5267E+07
   314.59    0.5183E+07
   318.14    0.5398E+07
   321.69    0.5971E+07
   325.25    0.7000E+07
   328.80    0.8496E+07
   332.35    0.9943E+07
   335.90    0.1012E+08
   339.46    0.8745E+07
   343.01    0.7003E+07
   346.56    0.5641E+07
   350.12    0.4723E+07
   353.67    0.4125E+07
   357.22    0.3741E+07
   360.77    0.3508E+07
   364.33    0.3391E+07
   367.88    0.3385E+07
   371.43    0.3503E+07
   374.99    0.3784E+07
   378.54    0.4283E+07
   382.09    0.4992E+07
   385.64    0.5613E+07
   389.20    0.5565E+07
   392.75    0.4841E+07
   396.30    0.4020E+07
   399.86    0.3406E+07
   403.41    0.3009E+07
   406.96    0.2778E+07
   410.51    0.2674E+07
   414.07    0.2677E+07
   417.62    0.2741E+07
   421.17    0.2750E+07
   424.73    0.2604E+07
   428.28    0.2382E+07
   431.83    0.2197E+07
   435.38    0.2084E+07
   438.94    0.2042E+07
   442.49    0.2067E+07
   446.04    0.2141E+07
   449.59    0.2193E+07
   453.15    0.2123E+07
   456.70    0.1962E+07
   460.25    0.1808E+07
   463.81    0.1702E+07
   467.36    0.1645E+07
   470.91    0.1631E+07
   474.46    0.1655E+07
   478.02    0.1696E+07
   481.57    0.1693E+07
   485.12    0.1616E+07
   488.68    0.1515E+07
   492.23    0.1436E+07
   495.78    0.1387E+07
   499.33    0.1367E+07
   502.89    0.1374E+07
   506.44    0.1403E+07
   509.99    0.1431E+07
   513.55    0.1422E+07
   517.10    0.1383E+07
   520.65    0.1356E+07
   524.20    0.1363E+07
   527.76    0.1414E+07
   531.31    0.1520E+07
   534.86    0.1694E+07
   538.42    0.1900E+07
   541.97    0.2000E+07
   545.52    0.1880E+07
   549.07    0.1650E+07
   552.63    0.1453E+07
   556.18    0.1321E+07
   559.73    0.1243E+07
   563.29    0.1204E+07
   566.84    0.1196E+07
   570.39    0.1201E+07
   573.94    0.1182E+07
   577.50    0.1133E+07
   581.05    0.1084E+07
   584.60    0.1056E+07
   588.16    0.1054E+07
   591.71    0.1080E+07
   595.26    0.1136E+07
   598.81    0.1205E+07
   602.37    0.1233E+07
   605.92    0.1185E+07
   609.47    0.1109E+07
   613.03    0.1055E+07
   616.58    0.1034E+07
   620.13    0.1046E+07
   623.68    0.1085E+07
   627.24    0.1126E+07
   630.79    0.1133E+07
   634.34    0.1116E+07
   637.89    0.1115E+07
   641.45    0.1156E+07
   645.00    0.1242E+07
   648.55    0.1358E+07
   652.11    0.1468E+07
   655.66    0.1581E+07
   659.21    0.1773E+07
   662.76    0.2084E+07
   666.32    0.2425E+07
   669.87    0.2543E+07
   673.42    0.2364E+07
   676.98    0.2142E+07
   680.53    0.2045E+07
   684.08    0.2012E+07
   687.63    0.1879E+07
   691.19    0.1642E+07
   694.74    0.1416E+07
   698.29    0.1251E+07
   701.85    0.1150E+07
   705.40    0.1096E+07
   708.95    0.1043E+07
   712.50    0.9560E+06
   716.06    0.8595E+06
   719.61    0.7808E+06
   723.16    0.7240E+06
   726.72    0.6840E+06
   730.27    0.6564E+06
   733.82    0.6384E+06
   737.37    0.6278E+06
   740.93    0.6200E+06
   744.48    0.6074E+06
   748.03    0.5899E+06
   751.59    0.5736E+06
   755.14    0.5622E+06
   758.69    0.5559E+06
   762.24    0.5549E+06
   765.80    0.5601E+06
   769.35    0.5737E+06
   772.90    0.5994E+06
   776.46    0.6427E+06
   780.01    0.7064E+06
   783.56    0.7725E+06
   787.11    0.7891E+06
   790.67    0.7340E+06
   794.22    0.6557E+06
   797.77    0.5926E+06
   801.33    0.5503E+06
   804.88    0.5243E+06
   808.43    0.5105E+06
   811.98    0.5073E+06
   815.54    0.5151E+06
   819.09    0.5354E+06
   822.64    0.5651E+06
   826.19    0.5846E+06
   829.75    0.5679E+06
   833.30    0.5251E+06
   836.85    0.4832E+06
   840.41    0.4517E+06
   843.96    0.4294E+06
   847.51    0.4133E+06
   851.06    0.4011E+06
   854.62    0.3915E+06
   858.17    0.3837E+06
   861.72    0.3770E+06
   865.28    0.3711E+06
   868.83    0.3659E+06
   872.38    0.3612E+06
   875.93    0.3569E+06
   879.49    0.3529E+06
   883.04    0.3492E+06
   886.59    0.3457E+06
   890.15    0.3425E+06
   893.70    0.3394E+06
   897.25    0.3365E+06
   900.80    0.3339E+06
   904.36    0.3315E+06
   907.91    0.3293E+06
   911.46    0.3274E+06
   915.02    0.3258E+06
   918.57    0.3246E+06
   922.12    0.3241E+06
   925.67    0.3242E+06
   929.23    0.3254E+06
   932.78    0.3282E+06
   936.33    0.3333E+06
   939.89    0.3421E+06
   943.44    0.3567E+06
   946.99    0.3800E+06
   950.54    0.4134E+06
   954.10    0.4479E+06
   957.65    0.4569E+06
   961.20    0.4286E+06
   964.76    0.3877E+06
   968.31    0.3540E+06
   971.86    0.3303E+06
   975.41    0.3140E+06
   978.97    0.3024E+06
   982.52    0.2939E+06
   986.07    0.2872E+06
   989.63    0.2819E+06
   993.18    0.2775E+06
   996.73    0.2737E+06
  1000.28    0.2703E+06
  1003.84    0.2674E+06
  1007.39    0.2647E+06
  1010.94    0.2622E+06
  1014.49    0.2599E+06
  1018.05    0.2578E+06
  1021.60    0.2559E+06
  1025.15    0.2541E+06
  1028.71    0.2525E+06
  1032.26    0.2511E+06
  1035.81    0.2498E+06
  1039.36    0.2488E+06
  1042.92    0.2480E+06
  1046.47    0.2477E+06
  1050.02    0.2478E+06
  1053.58    0.2486E+06
  1057.13    0.2505E+06
  1060.68    0.2539E+06
  1064.23    0.2598E+06
  1067.79    0.2694E+06
  1071.34    0.2848E+06
  1074.89    0.3075E+06
  1078.45    0.3329E+06
  1082.00    0.3436E+06
  1085.55    0.3271E+06
  1089.10    0.2983E+06
  1092.66    0.2733E+06
  1096.21    0.2556E+06
  1099.76    0.2434E+06
  1103.32    0.2348E+06
  1106.87    0.2284E+06
  1110.42    0.2236E+06
  1113.97    0.2197E+06
  1117.53    0.2165E+06
  1121.08    0.2137E+06
  1124.63    0.2113E+06
  1128.19    0.2091E+06
  1131.74    0.2071E+06
  1135.29    0.2053E+06
  1138.84    0.2036E+06
  1142.40    0.2019E+06
  1145.95    0.2004E+06
  1149.50    0.1989E+06
  1153.06    0.1975E+06
  1156.61    0.1961E+06
  1160.16    0.1948E+06
  1163.71    0.1935E+06
  1167.27    0.1923E+06
  1170.82    0.1911E+06
  1174.37    0.1900E+06
  1177.93    0.1889E+06
  1181.48    0.1879E+06
  1185.03    0.1870E+06
  1188.58    0.1862E+06
  1192.14    0.1856E+06
  1195.69    0.1852E+06
  1199.24    0.1849E+06
  1202.79    0.1842E+06
  1206.35    0.1828E+06
  1209.90    0.1811E+06
  1213.45    0.1797E+06
  1217.01    0.1784E+06
  1220.56    0.1773E+06
  1224.11    0.1763E+06
  1227.66    0.1754E+06
  1231.22    0.1747E+06
  1234.77    0.1739E+06
  1238.32    0.1733E+06
  1241.88    0.1727E+06
  1245.43    0.1722E+06
  1248.98    0.1719E+06
  1252.53    0.1716E+06
  1256.09    0.1715E+06
  1259.64    0.1715E+06
  1263.19    0.1717E+06
  1266.75    0.1722E+06
  1270.30    0.1729E+06
  1273.85    0.1741E+06
  1277.40    0.1759E+06
  1280.96    0.1783E+06
  1284.51    0.1818E+06
  1288.06    0.1868E+06
  1291.62    0.1939E+06
  1295.17    0.2041E+06
  1298.72    0.2194E+06
  1302.27    0.2426E+06
  1305.83    0.2781E+06
  1309.38    0.3311E+06
  1312.93    0.3987E+06
  1316.49    0.4502E+06
  1320.04    0.4383E+06
  1323.59    0.3747E+06
  1327.14    0.3086E+06
  1330.70    0.2599E+06
  1334.25    0.2272E+06
  1337.80    0.2053E+06
  1341.36    0.1903E+06
  1344.91    0.1796E+06
  1348.46    0.1718E+06
  1352.01    0.1658E+06
  1355.57    0.1612E+06
  1359.12    0.1574E+06
  1362.67    0.1544E+06
  1366.22    0.1518E+06
  1369.78    0.1496E+06
  1373.33    0.1478E+06
  1376.88    0.1461E+06
  1380.44    0.1447E+06
  1383.99    0.1435E+06
  1387.54    0.1424E+06
  1391.09    0.1414E+06
  1394.65    0.1406E+06
  1398.20    0.1400E+06
  1401.75    0.1396E+06
  1405.31    0.1395E+06
  1408.86    0.1399E+06
  1412.41    0.1408E+06
  1415.96    0.1426E+06
  1419.52    0.1453E+06
  1423.07    0.1474E+06
  1426.62    0.1467E+06
  1430.18    0.1433E+06
  1433.73    0.1395E+06
  1437.28    0.1367E+06
  1440.83    0.1347E+06
  1444.39    0.1333E+06
  1447.94    0.1323E+06
  1451.49    0.1316E+06
  1455.05    0.1312E+06
  1458.60    0.1309E+06
  1462.15    0.1309E+06
  1465.70    0.1310E+06
  1469.26    0.1313E+06
  1472.81    0.1319E+06
  1476.36    0.1329E+06
  1479.92    0.1342E+06
  1483.47    0.1360E+06
  1487.02    0.1385E+06
  1490.57    0.1420E+06
  1494.13    0.1468E+06
  1497.68    0.1537E+06
  1501.23    0.1637E+06
  1504.79    0.1785E+06
  1508.34    0.2010E+06
  1511.89    0.2352E+06
  1515.44    0.2841E+06
  1519.00    0.3387E+06
  1522.55    0.3638E+06
  1526.10    0.3337E+06
  1529.66    0.2784E+06
  1533.21    0.2308E+06
  1536.76    0.1979E+06
  1540.31    0.1764E+06
  1543.87    0.1623E+06
  1547.42    0.1530E+06
  1550.97    0.1468E+06
  1554.52    0.1429E+06
  1558.08    0.1406E+06
  1561.63    0.1397E+06
  1565.18    0.1400E+06
  1568.74    0.1415E+06
  1572.29    0.1445E+06
  1575.84    0.1494E+06
  1579.39    0.1566E+06
  1582.95    0.1672E+06
  1586.50    0.1830E+06
  1590.05    0.2066E+06
  1593.61    0.2426E+06
  1597.16    0.2976E+06
  1600.71    0.3775E+06
  1604.26    0.4708E+06
  1607.82    0.5221E+06
  1611.37    0.4797E+06
  1614.92    0.3863E+06
  1618.48    0.3020E+06
  1622.03    0.2426E+06
  1625.58    0.2032E+06
  1629.13    0.1768E+06
  1632.69    0.1586E+06
  1636.24    0.1457E+06
  1639.79    0.1362E+06
  1643.35    0.1291E+06
  1646.90    0.1235E+06
  1650.45    0.1191E+06
  1654.00    0.1155E+06
  1657.56    0.1126E+06
  1661.11    0.1101E+06
  1664.66    0.1080E+06
  1668.22    0.1062E+06
  1671.77    0.1046E+06
  1675.32    0.1032E+06
  1678.87    0.1020E+06
  1682.43    0.1009E+06
  1685.98    0.9985E+05
  1689.53    0.9892E+05
  1693.09    0.9808E+05
  1696.64    0.9729E+05
  1700.19    0.9657E+05
  1703.74    0.9589E+05
  1707.30    0.9526E+05
  1710.85    0.9467E+05
  1714.40    0.9412E+05
  1717.96    0.9359E+05
  1721.51    0.9310E+05
  1725.06    0.9263E+05
  1728.61    0.9219E+05
  1732.17    0.9178E+05
  1735.72    0.9138E+05
  1739.27    0.9101E+05
  1742.82    0.9067E+05
  1746.38    0.9035E+05
  1749.93    0.9005E+05
  1753.48    0.8978E+05
  1757.04    0.8954E+05
  1760.59    0.8933E+05
  1764.14    0.8917E+05
  1767.69    0.8907E+05
  1771.25    0.8905E+05
  1774.80    0.8915E+05
  1778.35    0.8943E+05
  1781.91    0.8997E+05
  1785.46    0.9085E+05
  1789.01    0.9193E+05
  1792.56    0.9245E+05
  1796.12    0.9176E+05
  1799.67    0.9045E+05
  1803.22    0.8928E+05
  1806.78    0.8846E+05
  1810.33    0.8792E+05
  1813.88    0.8757E+05
  1817.43    0.8736E+05
  1820.99    0.8725E+05
  1824.54    0.8722E+05
  1828.09    0.8725E+05
  1831.65    0.8734E+05
  1835.20    0.8749E+05
  1838.75    0.8770E+05
  1842.30    0.8797E+05
  1845.86    0.8830E+05
  1849.41    0.8870E+05
  1852.96    0.8918E+05
  1856.52    0.8975E+05
  1860.07    0.9042E+05
  1863.62    0.9120E+05
  1867.17    0.9212E+05
  1870.73    0.9319E+05
  1874.28    0.9443E+05
  1877.83    0.9589E+05
  1881.39    0.9761E+05
  1884.94    0.9964E+05
  1888.49    0.1021E+06
  1892.04    0.1050E+06
  1895.60    0.1085E+06
  1899.15    0.1128E+06
  1902.70    0.1183E+06
  1906.26    0.1252E+06
  1909.81    0.1342E+06
  1913.36    0.1462E+06
  1916.91    0.1628E+06
  1920.47    0.1864E+06
  1924.02    0.2209E+06
  1927.57    0.2708E+06
  1931.12    0.3355E+06
  1934.68    0.3923E+06
  1938.23    0.4007E+06
  1941.78    0.3650E+06
  1945.34    0.3285E+06
  1948.89    0.3128E+06
  1952.44    0.3209E+06
  1955.99    0.3536E+06
  1959.55    0.4159E+06
  1963.10    0.5189E+06
  1966.65    0.6801E+06
  1970.21    0.9108E+06
  1973.76    0.1172E+07
  1977.31    0.1326E+07
  1980.86    0.1236E+07
  1984.42    0.9801E+06
  1987.97    0.7326E+06
  1991.52    0.5573E+06
  1995.08    0.4464E+06
  1998.63    0.3815E+06
  2002.18    0.3504E+06
  2005.73    0.3483E+06
  2009.29    0.3746E+06
  2012.84    0.4244E+06
  2016.39    0.4664E+06
  2019.95    0.4493E+06
  2023.50    0.3787E+06
  2027.05    0.3050E+06
  2030.60    0.2511E+06
  2034.16    0.2164E+06
  2037.71    0.1959E+06
  2041.26    0.1864E+06
  2044.82    0.1868E+06
  2048.37    0.1975E+06
  2051.92    0.2175E+06
  2055.47    0.2367E+06
  2059.03    0.2348E+06
  2062.58    0.2097E+06
  2066.13    0.1814E+06
  2069.69    0.1610E+06
  2073.24    0.1495E+06
  2076.79    0.1453E+06
  2080.34    0.1465E+06
  2083.90    0.1490E+06
  2087.45    0.1471E+06
  2091.00    0.1416E+06
  2094.56    0.1376E+06
  2098.11    0.1372E+06
  2101.66    0.1381E+06
  2105.21    0.1377E+06
  2108.77    0.1377E+06
  2112.32    0.1408E+06
  2115.87    0.1484E+06
  2119.42    0.1616E+06
  2122.98    0.1824E+06
  2126.53    0.2143E+06
  2130.08    0.2623E+06
  2133.64    0.3288E+06
  2137.19    0.3994E+06
  2140.74    0.4341E+06
  2144.29    0.4211E+06
  2147.85    0.3997E+06
  2151.40    0.3946E+06
  2154.95    0.4144E+06
  2158.51    0.4740E+06
  2162.06    0.5854E+06
  2165.61    0.7325E+06
  2169.16    0.8272E+06
  2172.72    0.7722E+06
  2176.27    0.6247E+06
  2179.82    0.4870E+06
  2183.38    0.3844E+06
  2186.93    0.3105E+06
  2190.48    0.2598E+06
  2194.03    0.2235E+06
  2197.59    0.1927E+06
  2201.14    0.1652E+06
  2204.69    0.1430E+06
  2208.25    0.1263E+06
  2211.80    0.1138E+06
  2215.35    0.1043E+06
  2218.90    0.9699E+05
  2222.46    0.9113E+05
  2226.01    0.8637E+05
  2229.56    0.8242E+05
  2233.12    0.7911E+05
  2236.67    0.7628E+05
  2240.22    0.7384E+05
  2243.77    0.7172E+05
  2247.33    0.6986E+05
  2250.88    0.6821E+05
  2254.43    0.6674E+05
  2257.99    0.6541E+05
  2261.54    0.6421E+05
  2265.09    0.6313E+05
  2268.64    0.6213E+05
  2272.20    0.6122E+05
  2275.75    0.6038E+05
  2279.30    0.5960E+05
  2282.86    0.5887E+05
  2286.41    0.5819E+05
  2289.96    0.5756E+05
  2293.51    0.5696E+05
  2297.07    0.5640E+05
  2300.62    0.5587E+05
  2304.17    0.5537E+05
  2307.72    0.5489E+05
  2311.28    0.5443E+05
  2314.83    0.5400E+05
  2318.38    0.5359E+05
  2321.94    0.5319E+05
  2325.49    0.5281E+05
  2329.04    0.5244E+05
  2332.59    0.5209E+05
  2336.15    0.5175E+05
  2339.70    0.5142E+05
  2343.25    0.5110E+05
  2346.81    0.5079E+05
  2350.36    0.5050E+05
  2353.91    0.5021E+05
  2357.46    0.4993E+05
  2361.02    0.4965E+05
  2364.57    0.4938E+05
  2368.12    0.4912E+05
  2371.68    0.4887E+05
  2375.23    0.4862E+05
  2378.78    0.4838E+05
  2382.33    0.4814E+05
  2385.89    0.4791E+05
  2389.44    0.4769E+05
  2392.99    0.4746E+05
  2396.55    0.4724E+05
  2400.10    0.4703E+05
  2403.65    0.4682E+05
  2407.20    0.4661E+05
  2410.76    0.4641E+05
  2414.31    0.4621E+05
  2417.86    0.4601E+05
  2421.42    0.4582E+05
  2424.97    0.4563E+05
  2428.52    0.4544E+05
  2432.07    0.4526E+05
  2435.63    0.4508E+05
  2439.18    0.4490E+05
  2442.73    0.4472E+05
  2446.29    0.4454E+05
  2449.84    0.4437E+05
  2453.39    0.4420E+05
  2456.94    0.4403E+05
  2460.50    0.4387E+05
  2464.05    0.4370E+05
  2467.60    0.4354E+05
  2471.16    0.4338E+05
  2474.71    0.4322E+05
  2478.26    0.4306E+05
  2481.81    0.4291E+05
  2485.37    0.4275E+05
  2488.92    0.4260E+05
  2492.47    0.4245E+05
  2496.02    0.4230E+05
  2499.58    0.4215E+05
  2503.13    0.4200E+05
  2506.68    0.4186E+05
  2510.24    0.4171E+05
  2513.79    0.4157E+05
  2517.34    0.4143E+05
  2520.89    0.4129E+05
  2524.45    0.4115E+05
  2528.00    0.4101E+05
  2531.55    0.4088E+05
  2535.11    0.4074E+05
  2538.66    0.4061E+05
  2542.21    0.4047E+05
  2545.76    0.4034E+05
  2549.32    0.4021E+05
  2552.87    0.4008E+05
  2556.42    0.3995E+05
  2559.98    0.3982E+05
  2563.53    0.3969E+05
  2567.08    0.3956E+05
  2570.63    0.3944E+05
  2574.19    0.3931E+05
  2577.74    0.3919E+05
  2581.29    0.3907E+05
  2584.85    0.3894E+05
  2588.40    0.3882E+05
  2591.95    0.3870E+05
  2595.50    0.3858E+05
  2599.06    0.3846E+05
  2602.61    0.3834E+05
  2606.16    0.3823E+05
  2609.72    0.3811E+05
  2613.27    0.3799E+05
  2616.82    0.3788E+05
  2620.37    0.3776E+05
  2623.93    0.3765E+05
  2627.48    0.3754E+05
  2631.03    0.3742E+05
  2634.59    0.3731E+05
  2638.14    0.3720E+05
  2641.69    0.3709E+05
  2645.24    0.3698E+05
  2648.80    0.3687E+05
  2652.35    0.3676E+05
  2655.90    0.3666E+05
  2659.46    0.3655E+05
  2663.01    0.3644E+05
  2666.56    0.3633E+05
  2670.11    0.3623E+05
  2673.67    0.3612E+05
  2677.22    0.3602E+05
  2680.77    0.3592E+05
  2684.32    0.3581E+05
  2687.88    0.3571E+05
  2691.43    0.3561E+05
  2694.98    0.3551E+05
  2698.54    0.3540E+05
  2702.09    0.3530E+05
  2705.64    0.3520E+05
  2709.19    0.3510E+05
  2712.75    0.3500E+05
  2716.30    0.3491E+05
  2719.85    0.3481E+05
  2723.41    0.3471E+05
  2726.96    0.3461E+05
  2730.51    0.3452E+05
  2734.06    0.3442E+05
  2737.62    0.3433E+05
  2741.17    0.3423E+05
  2744.72    0.3414E+05
  2748.28    0.3404E+05
  2751.83    0.3395E+05
  2755.38    0.3385E+05
  2758.93    0.3376E+05
  2762.49    0.3367E+05
  2766.04    0.3358E+05
  2769.59    0.3348E+05
  2773.15    0.3339E+05
  2776.70    0.3330E+05
  2780.25    0.3321E+05
  2783.80    0.3312E+05
  2787.36    0.3303E+05
  2790.91    0.3294E+05
  2794.46    0.3286E+05
  2798.02    0.3277E+05
  2801.57    0.3268E+05
  2805.12    0.3259E+05
  2808.67    0.3251E+05
  2812.23    0.3242E+05
  2815.78    0.3233E+05
  2819.33    0.3225E+05
  2822.89    0.3216E+05
  2826.44    0.3208E+05
  2829.99    0.3199E+05
  2833.54    0.3191E+05
  2837.10    0.3182E+05
  2840.65    0.3174E+05
  2844.20    0.3166E+05
  2847.76    0.3157E+05
  2851.31    0.3149E+05
  2854.86    0.3141E+05
  2858.41    0.3133E+05
  2861.97    0.3125E+05
  2865.52    0.3116E+05
  2869.07    0.3108E+05
  2872.62    0.3100E+05
  2876.18    0.3092E+05
  2879.73    0.3084E+05
  2883.28    0.3076E+05
  2886.84    0.3069E+05
  2890.39    0.3061E+05
  2893.94    0.3053E+05
  2897.49    0.3045E+05
  2901.05    0.3037E+05
  2904.60    0.3030E+05
  2908.15    0.3022E+05
  2911.71    0.3014E+05
  2915.26    0.3007E+05
  2918.81    0.2999E+05
  2922.36    0.2991E+05
  2925.92    0.2984E+05
  2929.47    0.2976E+05
  2933.02    0.2969E+05
  2936.58    0.2961E+05
  2940.13    0.2954E+05
  2943.68    0.2947E+05
  2947.23    0.2939E+05
  2950.79    0.2932E+05
  2954.34    0.2925E+05
  2957.89    0.2917E+05
  2961.45    0.2910E+05
  2965.00    0.2903E+05
  2968.55    0.2896E+05
  2972.10    0.2888E+05
  2975.66    0.2881E+05
  2979.21    0.2874E+05
  2982.76    0.2867E+05
  2986.32    0.2860E+05
  2989.87    0.2853E+05
  2993.42    0.2846E+05
  2996.97    0.2839E+05
  3000.53    0.2832E+05
  3004.08    0.2825E+05
  3007.63    0.2818E+05
  3011.19    0.2812E+05
  3014.74    0.2805E+05
  3018.29    0.2798E+05
  3021.84    0.2791E+05
  3025.40    0.2784E+05
  3028.95    0.2778E+05
  3032.50    0.2771E+05
  3036.06    0.2764E+05
  3039.61    0.2758E+05
  3043.16    0.2751E+05
  3046.71    0.2744E+05
  3050.27    0.2738E+05
  3053.82    0.2731E+05
  3057.37    0.2725E+05
  3060.92    0.2718E+05
  3064.48    0.2712E+05
  3068.03    0.2705E+05
  3071.58    0.2699E+05
  3075.14    0.2693E+05
  3078.69    0.2686E+05
  3082.24    0.2680E+05
  3085.79    0.2674E+05
  3089.35    0.2667E+05
  3092.90    0.2661E+05
  3096.45    0.2655E+05
  3100.01    0.2648E+05
  3103.56    0.2642E+05
  3107.11    0.2636E+05
  3110.66    0.2630E+05
  3114.22    0.2624E+05
  3117.77    0.2618E+05
  3121.32    0.2612E+05
  3124.88    0.2606E+05
  3128.43    0.2599E+05
  3131.98    0.2593E+05
  3135.53    0.2587E+05
  3139.09    0.2581E+05
  3142.64    0.2576E+05
  3146.19    0.2570E+05
  3149.75    0.2564E+05
  3153.30    0.2558E+05
  3156.85    0.2552E+05
  3160.40    0.2546E+05
  3163.96    0.2540E+05
  3167.51    0.2534E+05
  3171.06    0.2529E+05
  3174.62    0.2523E+05
  3178.17    0.2517E+05
  3181.72    0.2511E+05
  3185.27    0.2506E+05
  3188.83    0.2500E+05
  3192.38    0.2494E+05
  3195.93    0.2489E+05
  3199.49    0.2483E+05
  3203.04    0.2478E+05
  3206.59    0.2472E+05
  3210.14    0.2467E+05
  3213.70    0.2461E+05
  3217.25    0.2456E+05
  3220.80    0.2450E+05
  3224.36    0.2445E+05
  3227.91    0.2439E+05
  3231.46    0.2434E+05
  3235.01    0.2428E+05
  3238.57    0.2423E+05
  3242.12    0.2418E+05
  3245.67    0.2412E+05
  3249.22    0.2407E+05
  3252.78    0.2402E+05
  3256.33    0.2397E+05
  3259.88    0.2391E+05
  3263.44    0.2386E+05
  3266.99    0.2381E+05
  3270.54    0.2376E+05
  3274.09    0.2371E+05
  3277.65    0.2366E+05
  3281.20    0.2361E+05
  3284.75    0.2356E+05
  3288.31    0.2351E+05
  3291.86    0.2346E+05
  3295.41    0.2341E+05
  3298.96    0.2336E+05
  3302.52    0.2331E+05
  3306.07    0.2326E+05
  3309.62    0.2321E+05
  3313.18    0.2317E+05
  3316.73    0.2312E+05
  3320.28    0.2307E+05
  3323.83    0.2303E+05
  3327.39    0.2298E+05
  3330.94    0.2294E+05
  3334.49    0.2289E+05
  3338.05    0.2285E+05
  3341.60    0.2281E+05
  3345.15    0.2277E+05
  3348.70    0.2273E+05
  3352.26    0.2269E+05
  3355.81    0.2265E+05
  3359.36    0.2262E+05
  3362.92    0.2258E+05
  3366.47    0.2255E+05
  3370.02    0.2253E+05
  3373.57    0.2250E+05
  3377.13    0.2249E+05
  3380.68    0.2248E+05
  3384.23    0.2248E+05
  3387.79    0.2249E+05
  3391.34    0.2251E+05
  3394.89    0.2256E+05
  3398.44    0.2263E+05
  3402.00    0.2275E+05
  3405.55    0.2293E+05
  3409.10    0.2321E+05
  3412.66    0.2364E+05
  3416.21    0.2430E+05
  3419.76    0.2534E+05
  3423.31    0.2680E+05
  3426.87    0.2836E+05
  3430.42    0.2894E+05
  3433.97    0.2791E+05
  3437.52    0.2621E+05
  3441.08    0.2476E+05
  3444.63    0.2374E+05
  3448.18    0.2305E+05
  3451.74    0.2257E+05
  3455.29    0.2223E+05
  3458.84    0.2198E+05
  3462.39    0.2178E+05
  3465.95    0.2162E+05
  3469.50    0.2149E+05
  3473.05    0.2138E+05
  3476.61    0.2129E+05
  3480.16    0.2120E+05
  3483.71    0.2112E+05
  3487.26    0.2105E+05
  3490.82    0.2098E+05
  3494.37    0.2092E+05
