
 ------------------------------------------------------------
     normal          Raman Scattering Plot
 ------------------------------------------------------------
 Excitation wavelength  514.50 nm
 Convolution lineshape is lorentzian  
 FWHM   20.00  1/cm
 ------------------------------------------------------------
 ------------------------------------------------------------
 # of frequencies :    30
 ------------------------------------------------------------
 #  freq [ 1/cm]  S [Ang**4/amu]
 ------------------------------------------------------------
   1    58.36        0.0088
   2   123.39        2.0891
   3   123.39        2.0915
   4   217.83        0.0010
   5   217.83        0.0054
   6   320.01        0.8995
   7   320.01        0.9302
   8   380.30        7.4040
   9   449.86        0.0006
  10   449.86        0.0128
  11   533.68        1.5163
  12   533.68        1.5137
  13   605.07        0.0027
  14   605.07        0.0192
  15   643.42        3.3572
  16   643.42        3.3587
  17   667.10        0.0009
  18   667.10        0.1499
  19   685.78       53.7699
  20   685.78       53.7716
  21   748.49        0.0222
  22  1090.74       13.1355
  23  1390.42        0.1439
  24  1973.62      437.4427
  25  2053.52        0.2554
  26  2105.47     8846.5307
  27  2153.54        8.7891
  28  2199.75        0.0096
  29  3439.33       64.6909
  30  3440.97        0.2805
 ------------------------------------------------------------
     1.87    0.1689E-02
     5.37    0.1777E-02
     8.88    0.1874E-02
    12.38    0.1981E-02
    15.89    0.2099E-02
    19.40    0.2231E-02
    22.90    0.2380E-02
    26.41    0.2548E-02
    29.91    0.2740E-02
    33.42    0.2964E-02
    36.93    0.3227E-02
    40.43    0.3545E-02
    43.94    0.3938E-02
    47.45    0.4438E-02
    50.95    0.5072E-02
    54.46    0.5808E-02
    57.96    0.6456E-02
    61.47    0.6829E-02
    64.98    0.7083E-02
    68.48    0.7475E-02
    71.99    0.8103E-02
    75.49    0.8992E-02
    79.00    0.1017E-01
    82.51    0.1171E-01
    86.01    0.1369E-01
    89.52    0.1628E-01
    93.02    0.1972E-01
    96.53    0.2439E-01
   100.04    0.3090E-01
   103.54    0.4020E-01
   107.05    0.5392E-01
   110.56    0.7456E-01
   114.06    0.1053    
   117.57    0.1469    
   121.07    0.1866    
   124.58    0.1939    
   128.09    0.1612    
   131.59    0.1178    
   135.10    0.8327E-01
   138.60    0.5971E-01
   142.11    0.4408E-01
   145.62    0.3356E-01
   149.12    0.2628E-01
   152.63    0.2109E-01
   156.13    0.1729E-01
   159.64    0.1443E-01
   163.15    0.1224E-01
   166.65    0.1053E-01
   170.16    0.9169E-02
   173.67    0.8069E-02
   177.17    0.7171E-02
   180.68    0.6430E-02
   184.18    0.5811E-02
   187.69    0.5291E-02
   191.20    0.4852E-02
   194.70    0.4478E-02
   198.21    0.4159E-02
   201.71    0.3888E-02
   205.22    0.3659E-02
   208.73    0.3468E-02
   212.23    0.3310E-02
   215.74    0.3174E-02
   219.24    0.3040E-02
   222.75    0.2901E-02
   226.26    0.2774E-02
   229.76    0.2668E-02
   233.27    0.2581E-02
   236.78    0.2512E-02
   240.28    0.2458E-02
   243.79    0.2418E-02
   247.29    0.2391E-02
   250.80    0.2377E-02
   254.31    0.2375E-02
   257.81    0.2387E-02
   261.32    0.2414E-02
   264.82    0.2458E-02
   268.33    0.2520E-02
   271.84    0.2606E-02
   275.34    0.2719E-02
   278.85    0.2867E-02
   282.35    0.3060E-02
   285.86    0.3314E-02
   289.37    0.3650E-02
   292.87    0.4103E-02
   296.38    0.4729E-02
   299.89    0.5614E-02
   303.39    0.6902E-02
   306.90    0.8819E-02
   310.40    0.1166E-01
   313.91    0.1555E-01
   317.42    0.1944E-01
   320.92    0.2059E-01
   324.43    0.1798E-01
   327.93    0.1418E-01
   331.44    0.1119E-01
   334.95    0.9292E-02
   338.45    0.8233E-02
   341.96    0.7778E-02
   345.46    0.7792E-02
   348.97    0.8227E-02
   352.48    0.9114E-02
   355.98    0.1057E-01
   359.49    0.1280E-01
   363.00    0.1621E-01
   366.50    0.2144E-01
   370.01    0.2937E-01
   373.51    0.4062E-01
   377.02    0.5297E-01
   380.53    0.5841E-01
   384.03    0.5143E-01
   387.54    0.3879E-01
   391.04    0.2784E-01
   394.55    0.2018E-01
   398.06    0.1509E-01
   401.56    0.1168E-01
   405.07    0.9345E-02
   408.57    0.7692E-02
   412.08    0.6491E-02
   415.59    0.5597E-02
   419.09    0.4918E-02
   422.60    0.4393E-02
   426.11    0.3981E-02
   429.61    0.3656E-02
   433.12    0.3398E-02
   436.62    0.3193E-02
   440.13    0.3033E-02
   443.64    0.2911E-02
   447.14    0.2816E-02
   450.65    0.2732E-02
   454.15    0.2651E-02
   457.66    0.2582E-02
   461.17    0.2531E-02
   464.67    0.2500E-02
   468.18    0.2486E-02
   471.68    0.2489E-02
   475.19    0.2508E-02
   478.70    0.2542E-02
   482.20    0.2595E-02
   485.71    0.2667E-02
   489.22    0.2763E-02
   492.72    0.2889E-02
   496.23    0.3051E-02
   499.73    0.3262E-02
   503.24    0.3541E-02
   506.75    0.3915E-02
   510.25    0.4428E-02
   513.76    0.5154E-02
   517.26    0.6210E-02
   520.77    0.7783E-02
   524.28    0.1011E-01
   527.78    0.1326E-01
   531.29    0.1630E-01
   534.79    0.1698E-01
   538.30    0.1467E-01
   541.81    0.1152E-01
   545.31    0.9030E-02
   548.82    0.7369E-02
   552.33    0.6313E-02
   555.83    0.5654E-02
   559.34    0.5250E-02
   562.84    0.5019E-02
   566.35    0.4908E-02
   569.86    0.4888E-02
   573.36    0.4939E-02
   576.87    0.5050E-02
   580.37    0.5217E-02
   583.88    0.5438E-02
   587.39    0.5714E-02
   590.89    0.6051E-02
   594.40    0.6456E-02
   597.91    0.6941E-02
   601.41    0.7516E-02
   604.92    0.8190E-02
   608.42    0.8979E-02
   611.93    0.9932E-02
   615.44    0.1112E-01
   618.94    0.1262E-01
   622.45    0.1458E-01
   625.95    0.1719E-01
   629.46    0.2079E-01
   632.97    0.2581E-01
   636.47    0.3262E-01
   639.98    0.4043E-01
   643.48    0.4591E-01
   646.99    0.4658E-01
   650.50    0.4552E-01
   654.00    0.4653E-01
   657.51    0.5104E-01
   661.02    0.5969E-01
   664.52    0.7360E-01
   668.03    0.9492E-01
   671.53    0.1275    
   675.04    0.1771    
   678.55    0.2485    
   682.05    0.3310    
   685.56    0.3761    
   689.06    0.3395    
   692.57    0.2577    
   696.08    0.1831    
   699.58    0.1302    
   703.09    0.9493E-01
   706.59    0.7139E-01
   710.10    0.5526E-01
   713.61    0.4389E-01
   717.11    0.3564E-01
   720.62    0.2949E-01
   724.13    0.2480E-01
   727.63    0.2115E-01
   731.14    0.1827E-01
   734.64    0.1594E-01
   738.15    0.1405E-01
   741.66    0.1249E-01
   745.16    0.1120E-01
   748.67    0.1010E-01
   752.17    0.9146E-02
   755.68    0.8322E-02
   759.19    0.7609E-02
   762.69    0.6992E-02
   766.20    0.6453E-02
   769.70    0.5981E-02
   773.21    0.5564E-02
   776.72    0.5193E-02
   780.22    0.4863E-02
   783.73    0.4568E-02
   787.24    0.4302E-02
   790.74    0.4062E-02
   794.25    0.3845E-02
   797.75    0.3648E-02
   801.26    0.3469E-02
   804.77    0.3305E-02
   808.27    0.3155E-02
   811.78    0.3017E-02
   815.28    0.2891E-02
   818.79    0.2774E-02
   822.30    0.2667E-02
   825.80    0.2568E-02
   829.31    0.2476E-02
   832.81    0.2390E-02
   836.32    0.2311E-02
   839.83    0.2237E-02
   843.33    0.2168E-02
   846.84    0.2104E-02
   850.35    0.2045E-02
   853.85    0.1989E-02
   857.36    0.1937E-02
   860.86    0.1888E-02
   864.37    0.1842E-02
   867.88    0.1799E-02
   871.38    0.1759E-02
   874.89    0.1722E-02
   878.39    0.1686E-02
   881.90    0.1653E-02
   885.41    0.1622E-02
   888.91    0.1593E-02
   892.42    0.1566E-02
   895.92    0.1540E-02
   899.43    0.1516E-02
   902.94    0.1494E-02
   906.44    0.1473E-02
   909.95    0.1453E-02
   913.46    0.1435E-02
   916.96    0.1418E-02
   920.47    0.1402E-02
   923.97    0.1388E-02
   927.48    0.1375E-02
   930.99    0.1363E-02
   934.49    0.1352E-02
   938.00    0.1342E-02
   941.50    0.1333E-02
   945.01    0.1325E-02
   948.52    0.1318E-02
   952.02    0.1313E-02
   955.53    0.1308E-02
   959.03    0.1305E-02
   962.54    0.1303E-02
   966.05    0.1302E-02
   969.55    0.1302E-02
   973.06    0.1304E-02
   976.57    0.1307E-02
   980.07    0.1311E-02
   983.58    0.1318E-02
   987.08    0.1326E-02
   990.59    0.1336E-02
   994.10    0.1348E-02
   997.60    0.1363E-02
  1001.11    0.1380E-02
  1004.61    0.1401E-02
  1008.12    0.1425E-02
  1011.63    0.1453E-02
  1015.13    0.1486E-02
  1018.64    0.1525E-02
  1022.14    0.1571E-02
  1025.65    0.1625E-02
  1029.16    0.1689E-02
  1032.66    0.1765E-02
  1036.17    0.1857E-02
  1039.68    0.1968E-02
  1043.18    0.2103E-02
  1046.69    0.2271E-02
  1050.19    0.2482E-02
  1053.70    0.2751E-02
  1057.21    0.3100E-02
  1060.71    0.3562E-02
  1064.22    0.4189E-02
  1067.72    0.5063E-02
  1071.23    0.6319E-02
  1074.74    0.8173E-02
  1078.24    0.1096E-01
  1081.75    0.1511E-01
  1085.25    0.2061E-01
  1088.76    0.2554E-01
  1092.27    0.2592E-01
  1095.77    0.2135E-01
  1099.28    0.1576E-01
  1102.79    0.1142E-01
  1106.29    0.8476E-02
  1109.80    0.6524E-02
  1113.30    0.5207E-02
  1116.81    0.4294E-02
  1120.32    0.3642E-02
  1123.82    0.3163E-02
  1127.33    0.2802E-02
  1130.83    0.2526E-02
  1134.34    0.2309E-02
  1137.85    0.2137E-02
  1141.35    0.1999E-02
  1144.86    0.1885E-02
  1148.36    0.1792E-02
  1151.87    0.1714E-02
  1155.38    0.1649E-02
  1158.88    0.1594E-02
  1162.39    0.1547E-02
  1165.90    0.1507E-02
  1169.40    0.1473E-02
  1172.91    0.1443E-02
  1176.41    0.1418E-02
  1179.92    0.1396E-02
  1183.43    0.1377E-02
  1186.93    0.1361E-02
  1190.44    0.1347E-02
  1193.94    0.1335E-02
  1197.45    0.1324E-02
  1200.96    0.1316E-02
  1204.46    0.1308E-02
  1207.97    0.1302E-02
  1211.48    0.1297E-02
  1214.98    0.1293E-02
  1218.49    0.1289E-02
  1221.99    0.1287E-02
  1225.50    0.1285E-02
  1229.01    0.1284E-02
  1232.51    0.1284E-02
  1236.02    0.1284E-02
  1239.52    0.1285E-02
  1243.03    0.1287E-02
  1246.54    0.1289E-02
  1250.04    0.1291E-02
  1253.55    0.1294E-02
  1257.05    0.1297E-02
  1260.56    0.1300E-02
  1264.07    0.1304E-02
  1267.57    0.1308E-02
  1271.08    0.1313E-02
  1274.59    0.1318E-02
  1278.09    0.1323E-02
  1281.60    0.1329E-02
  1285.10    0.1335E-02
  1288.61    0.1341E-02
  1292.12    0.1347E-02
  1295.62    0.1354E-02
  1299.13    0.1361E-02
  1302.63    0.1368E-02
  1306.14    0.1376E-02
  1309.65    0.1384E-02
  1313.15    0.1392E-02
  1316.66    0.1400E-02
  1320.16    0.1409E-02
  1323.67    0.1418E-02
  1327.18    0.1427E-02
  1330.68    0.1437E-02
  1334.19    0.1447E-02
  1337.70    0.1457E-02
  1341.20    0.1468E-02
  1344.71    0.1479E-02
  1348.21    0.1491E-02
  1351.72    0.1503E-02
  1355.23    0.1516E-02
  1358.73    0.1531E-02
  1362.24    0.1546E-02
  1365.74    0.1563E-02
  1369.25    0.1584E-02
  1372.76    0.1608E-02
  1376.26    0.1638E-02
  1379.77    0.1678E-02
  1383.27    0.1731E-02
  1386.78    0.1789E-02
  1390.29    0.1826E-02
  1393.79    0.1818E-02
  1397.30    0.1787E-02
  1400.81    0.1761E-02
  1404.31    0.1746E-02
  1407.82    0.1742E-02
  1411.32    0.1744E-02
  1414.83    0.1750E-02
  1418.34    0.1759E-02
  1421.84    0.1771E-02
  1425.35    0.1783E-02
  1428.85    0.1797E-02
  1432.36    0.1811E-02
  1435.87    0.1827E-02
  1439.37    0.1843E-02
  1442.88    0.1859E-02
  1446.38    0.1876E-02
  1449.89    0.1893E-02
  1453.40    0.1911E-02
  1456.90    0.1929E-02
  1460.41    0.1948E-02
  1463.92    0.1967E-02
  1467.42    0.1987E-02
  1470.93    0.2007E-02
  1474.43    0.2027E-02
  1477.94    0.2048E-02
  1481.45    0.2069E-02
  1484.95    0.2091E-02
  1488.46    0.2113E-02
  1491.96    0.2136E-02
  1495.47    0.2159E-02
  1498.98    0.2182E-02
  1502.48    0.2206E-02
  1505.99    0.2230E-02
  1509.49    0.2255E-02
  1513.00    0.2281E-02
  1516.51    0.2306E-02
  1520.01    0.2333E-02
  1523.52    0.2360E-02
  1527.03    0.2387E-02
  1530.53    0.2415E-02
  1534.04    0.2444E-02
  1537.54    0.2473E-02
  1541.05    0.2503E-02
  1544.56    0.2533E-02
  1548.06    0.2564E-02
  1551.57    0.2595E-02
  1555.07    0.2628E-02
  1558.58    0.2661E-02
  1562.09    0.2694E-02
  1565.59    0.2728E-02
  1569.10    0.2763E-02
  1572.60    0.2799E-02
  1576.11    0.2836E-02
  1579.62    0.2873E-02
  1583.12    0.2911E-02
  1586.63    0.2950E-02
  1590.14    0.2990E-02
  1593.64    0.3031E-02
  1597.15    0.3072E-02
  1600.65    0.3115E-02
  1604.16    0.3158E-02
  1607.67    0.3203E-02
  1611.17    0.3248E-02
  1614.68    0.3295E-02
  1618.18    0.3342E-02
  1621.69    0.3391E-02
  1625.20    0.3441E-02
  1628.70    0.3492E-02
  1632.21    0.3544E-02
  1635.71    0.3597E-02
  1639.22    0.3652E-02
  1642.73    0.3708E-02
  1646.23    0.3766E-02
  1649.74    0.3824E-02
  1653.25    0.3885E-02
  1656.75    0.3947E-02
  1660.26    0.4010E-02
  1663.76    0.4075E-02
  1667.27    0.4142E-02
  1670.78    0.4210E-02
  1674.28    0.4280E-02
  1677.79    0.4353E-02
  1681.29    0.4427E-02
  1684.80    0.4503E-02
  1688.31    0.4581E-02
  1691.81    0.4661E-02
  1695.32    0.4743E-02
  1698.82    0.4828E-02
  1702.33    0.4915E-02
  1705.84    0.5005E-02
  1709.34    0.5097E-02
  1712.85    0.5192E-02
  1716.36    0.5290E-02
  1719.86    0.5390E-02
  1723.37    0.5494E-02
  1726.87    0.5601E-02
  1730.38    0.5711E-02
  1733.89    0.5824E-02
  1737.39    0.5941E-02
  1740.90    0.6062E-02
  1744.40    0.6187E-02
  1747.91    0.6316E-02
  1751.42    0.6449E-02
  1754.92    0.6586E-02
  1758.43    0.6729E-02
  1761.93    0.6876E-02
  1765.44    0.7028E-02
  1768.95    0.7185E-02
  1772.45    0.7349E-02
  1775.96    0.7518E-02
  1779.47    0.7693E-02
  1782.97    0.7875E-02
  1786.48    0.8064E-02
  1789.98    0.8260E-02
  1793.49    0.8464E-02
  1797.00    0.8676E-02
  1800.50    0.8897E-02
  1804.01    0.9126E-02
  1807.51    0.9366E-02
  1811.02    0.9615E-02
  1814.53    0.9876E-02
  1818.03    0.1015E-01
  1821.54    0.1043E-01
  1825.05    0.1073E-01
  1828.55    0.1104E-01
  1832.06    0.1137E-01
  1835.56    0.1171E-01
  1839.07    0.1207E-01
  1842.58    0.1245E-01
  1846.08    0.1285E-01
  1849.59    0.1327E-01
  1853.09    0.1372E-01
  1856.60    0.1419E-01
  1860.11    0.1469E-01
  1863.61    0.1522E-01
  1867.12    0.1578E-01
  1870.62    0.1638E-01
  1874.13    0.1702E-01
  1877.64    0.1771E-01
  1881.14    0.1845E-01
  1884.65    0.1925E-01
  1888.16    0.2011E-01
  1891.66    0.2105E-01
  1895.17    0.2207E-01
  1898.67    0.2319E-01
  1902.18    0.2442E-01
  1905.69    0.2579E-01
  1909.19    0.2731E-01
  1912.70    0.2901E-01
  1916.20    0.3095E-01
  1919.71    0.3316E-01
  1923.22    0.3571E-01
  1926.72    0.3870E-01
  1930.23    0.4224E-01
  1933.73    0.4652E-01
  1937.24    0.5178E-01
  1940.75    0.5838E-01
  1944.25    0.6687E-01
  1947.76    0.7810E-01
  1951.27    0.9344E-01
  1954.77    0.1151    
  1958.28    0.1467    
  1961.78    0.1936    
  1965.29    0.2619    
  1968.80    0.3484    
  1972.30    0.4161    
  1975.81    0.4073    
  1979.31    0.3333    
  1982.82    0.2541    
  1986.33    0.1959    
  1989.83    0.1579    
  1993.34    0.1340    
  1996.84    0.1192    
  2000.35    0.1103    
  2003.86    0.1054    
  2007.36    0.1035    
  2010.87    0.1037    
  2014.38    0.1057    
  2017.88    0.1094    
  2021.39    0.1144    
  2024.89    0.1210    
  2028.40    0.1291    
  2031.91    0.1389    
  2035.41    0.1506    
  2038.92    0.1645    
  2042.42    0.1810    
  2045.93    0.2007    
  2049.44    0.2243    
  2052.94    0.2527    
  2056.45    0.2873    
  2059.95    0.3298    
  2063.46    0.3828    
  2066.97    0.4498    
  2070.47    0.5361    
  2073.98    0.6494    
  2077.49    0.8016    
  2080.99     1.011    
  2084.50     1.309    
  2088.00     1.743    
  2091.51     2.393    
  2095.02     3.370    
  2098.52     4.756    
  2102.03     6.303    
  2105.53     7.047    
  2109.04     6.250    
  2112.55     4.695    
  2116.05     3.324    
  2119.56     2.362    
  2123.06     1.722    
  2126.57     1.294    
  2130.08     1.001    
  2133.58    0.7940    
  2137.09    0.6437    
  2140.60    0.5320    
  2144.10    0.4473    
  2147.61    0.3819    
  2151.11    0.3303    
  2154.62    0.2879    
  2158.13    0.2520    
  2161.63    0.2217    
  2165.14    0.1964    
  2168.64    0.1753    
  2172.15    0.1575    
  2175.66    0.1423    
  2179.16    0.1292    
  2182.67    0.1179    
  2186.17    0.1080    
  2189.68    0.9929E-01
  2193.19    0.9161E-01
  2196.69    0.8480E-01
  2200.20    0.7872E-01
  2203.71    0.7327E-01
  2207.21    0.6837E-01
  2210.72    0.6394E-01
  2214.22    0.5993E-01
  2217.73    0.5629E-01
  2221.24    0.5297E-01
  2224.74    0.4994E-01
  2228.25    0.4716E-01
  2231.75    0.4461E-01
  2235.26    0.4226E-01
  2238.77    0.4009E-01
  2242.27    0.3809E-01
  2245.78    0.3623E-01
  2249.28    0.3450E-01
  2252.79    0.3290E-01
  2256.30    0.3140E-01
  2259.80    0.3001E-01
  2263.31    0.2870E-01
  2266.82    0.2748E-01
  2270.32    0.2634E-01
  2273.83    0.2526E-01
  2277.33    0.2426E-01
  2280.84    0.2331E-01
  2284.35    0.2241E-01
  2287.85    0.2157E-01
  2291.36    0.2077E-01
  2294.86    0.2002E-01
  2298.37    0.1930E-01
  2301.88    0.1863E-01
  2305.38    0.1799E-01
  2308.89    0.1738E-01
  2312.39    0.1680E-01
  2315.90    0.1625E-01
  2319.41    0.1573E-01
  2322.91    0.1523E-01
  2326.42    0.1476E-01
  2329.93    0.1430E-01
  2333.43    0.1387E-01
  2336.94    0.1346E-01
  2340.44    0.1307E-01
  2343.95    0.1269E-01
  2347.46    0.1233E-01
  2350.96    0.1198E-01
  2354.47    0.1165E-01
  2357.97    0.1133E-01
  2361.48    0.1103E-01
  2364.99    0.1073E-01
  2368.49    0.1045E-01
  2372.00    0.1018E-01
  2375.50    0.9923E-02
  2379.01    0.9673E-02
  2382.52    0.9432E-02
  2386.02    0.9201E-02
  2389.53    0.8977E-02
  2393.04    0.8762E-02
  2396.54    0.8555E-02
  2400.05    0.8354E-02
  2403.55    0.8161E-02
  2407.06    0.7975E-02
  2410.57    0.7794E-02
  2414.07    0.7620E-02
  2417.58    0.7452E-02
  2421.08    0.7289E-02
  2424.59    0.7131E-02
  2428.10    0.6979E-02
  2431.60    0.6831E-02
  2435.11    0.6689E-02
  2438.62    0.6550E-02
  2442.12    0.6416E-02
  2445.63    0.6286E-02
  2449.13    0.6160E-02
  2452.64    0.6037E-02
  2456.15    0.5918E-02
  2459.65    0.5803E-02
  2463.16    0.5691E-02
  2466.66    0.5583E-02
  2470.17    0.5477E-02
  2473.68    0.5374E-02
  2477.18    0.5275E-02
  2480.69    0.5178E-02
  2484.19    0.5083E-02
  2487.70    0.4992E-02
  2491.21    0.4902E-02
  2494.71    0.4815E-02
  2498.22    0.4731E-02
  2501.73    0.4648E-02
  2505.23    0.4568E-02
  2508.74    0.4490E-02
  2512.24    0.4414E-02
  2515.75    0.4340E-02
  2519.26    0.4267E-02
  2522.76    0.4197E-02
  2526.27    0.4128E-02
  2529.77    0.4061E-02
  2533.28    0.3995E-02
  2536.79    0.3931E-02
  2540.29    0.3869E-02
  2543.80    0.3808E-02
  2547.30    0.3749E-02
  2550.81    0.3691E-02
  2554.32    0.3634E-02
  2557.82    0.3578E-02
  2561.33    0.3524E-02
  2564.84    0.3471E-02
  2568.34    0.3420E-02
  2571.85    0.3369E-02
  2575.35    0.3320E-02
  2578.86    0.3271E-02
  2582.37    0.3224E-02
  2585.87    0.3178E-02
  2589.38    0.3132E-02
  2592.88    0.3088E-02
  2596.39    0.3045E-02
  2599.90    0.3002E-02
  2603.40    0.2961E-02
  2606.91    0.2920E-02
  2610.41    0.2880E-02
  2613.92    0.2841E-02
  2617.43    0.2803E-02
  2620.93    0.2765E-02
  2624.44    0.2728E-02
  2627.95    0.2692E-02
  2631.45    0.2657E-02
  2634.96    0.2623E-02
  2638.46    0.2589E-02
  2641.97    0.2555E-02
  2645.48    0.2523E-02
  2648.98    0.2491E-02
  2652.49    0.2459E-02
  2655.99    0.2429E-02
  2659.50    0.2398E-02
  2663.01    0.2369E-02
  2666.51    0.2340E-02
  2670.02    0.2311E-02
  2673.52    0.2283E-02
  2677.03    0.2256E-02
  2680.54    0.2229E-02
  2684.04    0.2202E-02
  2687.55    0.2176E-02
  2691.06    0.2150E-02
  2694.56    0.2125E-02
  2698.07    0.2101E-02
  2701.57    0.2076E-02
  2705.08    0.2053E-02
  2708.59    0.2029E-02
  2712.09    0.2006E-02
  2715.60    0.1983E-02
  2719.10    0.1961E-02
  2722.61    0.1939E-02
  2726.12    0.1918E-02
  2729.62    0.1897E-02
  2733.13    0.1876E-02
  2736.63    0.1855E-02
  2740.14    0.1835E-02
  2743.65    0.1816E-02
  2747.15    0.1796E-02
  2750.66    0.1777E-02
  2754.17    0.1758E-02
  2757.67    0.1740E-02
  2761.18    0.1721E-02
  2764.68    0.1704E-02
  2768.19    0.1686E-02
  2771.70    0.1668E-02
  2775.20    0.1651E-02
  2778.71    0.1635E-02
  2782.21    0.1618E-02
  2785.72    0.1602E-02
  2789.23    0.1586E-02
  2792.73    0.1570E-02
  2796.24    0.1554E-02
  2799.74    0.1539E-02
  2803.25    0.1524E-02
  2806.76    0.1509E-02
  2810.26    0.1494E-02
  2813.77    0.1480E-02
  2817.28    0.1465E-02
  2820.78    0.1451E-02
  2824.29    0.1438E-02
  2827.79    0.1424E-02
  2831.30    0.1411E-02
  2834.81    0.1397E-02
  2838.31    0.1384E-02
  2841.82    0.1371E-02
  2845.32    0.1359E-02
  2848.83    0.1346E-02
  2852.34    0.1334E-02
  2855.84    0.1322E-02
  2859.35    0.1310E-02
  2862.85    0.1298E-02
  2866.36    0.1286E-02
  2869.87    0.1275E-02
  2873.37    0.1264E-02
  2876.88    0.1252E-02
  2880.39    0.1241E-02
  2883.89    0.1231E-02
  2887.40    0.1220E-02
  2890.90    0.1209E-02
  2894.41    0.1199E-02
  2897.92    0.1189E-02
  2901.42    0.1178E-02
  2904.93    0.1168E-02
  2908.43    0.1159E-02
  2911.94    0.1149E-02
  2915.45    0.1139E-02
  2918.95    0.1130E-02
  2922.46    0.1120E-02
  2925.96    0.1111E-02
  2929.47    0.1102E-02
  2932.98    0.1093E-02
  2936.48    0.1084E-02
  2939.99    0.1075E-02
  2943.50    0.1067E-02
  2947.00    0.1058E-02
  2950.51    0.1050E-02
  2954.01    0.1041E-02
  2957.52    0.1033E-02
  2961.03    0.1025E-02
  2964.53    0.1017E-02
  2968.04    0.1009E-02
  2971.54    0.1001E-02
  2975.05    0.9936E-03
  2978.56    0.9860E-03
  2982.06    0.9784E-03
  2985.57    0.9710E-03
  2989.07    0.9637E-03
  2992.58    0.9564E-03
  2996.09    0.9493E-03
  2999.59    0.9422E-03
  3003.10    0.9353E-03
  3006.61    0.9284E-03
  3010.11    0.9216E-03
  3013.62    0.9149E-03
  3017.12    0.9083E-03
  3020.63    0.9017E-03
  3024.14    0.8953E-03
  3027.64    0.8889E-03
  3031.15    0.8826E-03
  3034.65    0.8764E-03
  3038.16    0.8702E-03
  3041.67    0.8642E-03
  3045.17    0.8582E-03
  3048.68    0.8523E-03
  3052.19    0.8465E-03
  3055.69    0.8407E-03
  3059.20    0.8350E-03
  3062.70    0.8294E-03
  3066.21    0.8239E-03
  3069.72    0.8184E-03
  3073.22    0.8130E-03
  3076.73    0.8077E-03
  3080.23    0.8024E-03
  3083.74    0.7972E-03
  3087.25    0.7921E-03
  3090.75    0.7871E-03
  3094.26    0.7821E-03
  3097.76    0.7772E-03
  3101.27    0.7723E-03
  3104.78    0.7676E-03
  3108.28    0.7628E-03
  3111.79    0.7582E-03
  3115.30    0.7536E-03
  3118.80    0.7491E-03
  3122.31    0.7447E-03
  3125.81    0.7403E-03
  3129.32    0.7360E-03
  3132.83    0.7318E-03
  3136.33    0.7276E-03
  3139.84    0.7235E-03
  3143.34    0.7195E-03
  3146.85    0.7155E-03
  3150.36    0.7116E-03
  3153.86    0.7078E-03
  3157.37    0.7040E-03
  3160.87    0.7003E-03
  3164.38    0.6967E-03
  3167.89    0.6932E-03
  3171.39    0.6897E-03
  3174.90    0.6863E-03
  3178.41    0.6830E-03
  3181.91    0.6798E-03
  3185.42    0.6766E-03
  3188.92    0.6735E-03
  3192.43    0.6705E-03
  3195.94    0.6676E-03
  3199.44    0.6648E-03
  3202.95    0.6620E-03
  3206.45    0.6594E-03
  3209.96    0.6568E-03
  3213.47    0.6544E-03
  3216.97    0.6520E-03
  3220.48    0.6497E-03
  3223.98    0.6476E-03
  3227.49    0.6456E-03
  3231.00    0.6437E-03
  3234.50    0.6419E-03
  3238.01    0.6402E-03
  3241.52    0.6387E-03
  3245.02    0.6373E-03
  3248.53    0.6360E-03
  3252.03    0.6350E-03
  3255.54    0.6341E-03
  3259.05    0.6333E-03
  3262.55    0.6328E-03
  3266.06    0.6324E-03
  3269.56    0.6323E-03
  3273.07    0.6324E-03
  3276.58    0.6328E-03
  3280.08    0.6334E-03
  3283.59    0.6343E-03
  3287.09    0.6355E-03
  3290.60    0.6371E-03
  3294.11    0.6390E-03
  3297.61    0.6414E-03
  3301.12    0.6442E-03
  3304.63    0.6474E-03
  3308.13    0.6512E-03
  3311.64    0.6556E-03
  3315.14    0.6606E-03
  3318.65    0.6664E-03
  3322.16    0.6729E-03
  3325.66    0.6804E-03
  3329.17    0.6889E-03
  3332.67    0.6985E-03
  3336.18    0.7094E-03
  3339.69    0.7219E-03
  3343.19    0.7359E-03
  3346.70    0.7520E-03
  3350.20    0.7703E-03
  3353.71    0.7912E-03
  3357.22    0.8151E-03
  3360.72    0.8426E-03
  3364.23    0.8744E-03
  3367.74    0.9112E-03
  3371.24    0.9541E-03
  3374.75    0.1004E-02
  3378.25    0.1064E-02
  3381.76    0.1134E-02
  3385.27    0.1219E-02
  3388.77    0.1322E-02
  3392.28    0.1447E-02
  3395.78    0.1603E-02
  3399.29    0.1799E-02
  3402.80    0.2049E-02
  3406.30    0.2375E-02
  3409.81    0.2808E-02
  3413.31    0.3399E-02
  3416.82    0.4226E-02
  3420.33    0.5420E-02
  3423.83    0.7190E-02
  3427.34    0.9860E-02
  3430.85    0.1379E-01
  3434.35    0.1885E-01
  3437.86    0.2292E-01
  3441.36    0.2250E-01
  3444.87    0.1802E-01
  3448.38    0.1307E-01
  3451.88    0.9345E-02
  3455.39    0.6840E-02
  3458.89    0.5175E-02
  3462.40    0.4046E-02
  3465.91    0.3259E-02
  3469.41    0.2693E-02
  3472.92    0.2275E-02
  3476.42    0.1958E-02
  3479.93    0.1714E-02
  3483.44    0.1521E-02
  3486.94    0.1366E-02
  3490.45    0.1240E-02
  3493.96    0.1136E-02
  3497.46    0.1050E-02
  3500.97    0.9764E-03
  3504.47    0.9142E-03
