
 ------------------------------------------------------------
     normal          Raman Scattering Plot
 ------------------------------------------------------------
 Excitation wavelength  514.50 nm
 Convolution lineshape is lorentzian  
 FWHM   20.00  1/cm
 ------------------------------------------------------------
 ------------------------------------------------------------
 # of frequencies :    30
 ------------------------------------------------------------
 #  freq [ 1/cm]  S [Ang**4/amu]
 ------------------------------------------------------------
   1    85.85        0.0001
   2   150.04        2.0715
   3   150.04        2.0936
   4   243.88        0.0134
   5   243.88        0.0331
   6   343.58        0.9376
   7   343.58        0.9319
   8   369.99        5.8316
   9   468.89        0.0144
  10   468.89        0.0254
  11   550.80        1.5092
  12   550.80        1.5107
  13   616.59        0.0005
  14   616.59        0.0443
  15   648.79        0.1176
  16   648.79        0.1377
  17   670.15        0.0309
  18   670.15        0.0866
  19   697.74       39.1744
  20   697.74       39.2434
  21   726.97        0.0152
  22  1058.96       11.7632
  23  1345.03        2.3232
  24  1936.36      448.6226
  25  2009.58        3.5391
  26  2048.85     7999.2534
  27  2101.63       42.6893
  28  2142.19        0.2530
  29  3436.48        0.0610
  30  3436.88       72.9148
 ------------------------------------------------------------
    29.32    0.1250E-02
    32.79    0.1309E-02
    36.27    0.1373E-02
    39.74    0.1444E-02
    43.22    0.1521E-02
    46.69    0.1606E-02
    50.17    0.1699E-02
    53.64    0.1802E-02
    57.12    0.1917E-02
    60.59    0.2045E-02
    64.07    0.2188E-02
    67.54    0.2349E-02
    71.01    0.2531E-02
    74.49    0.2738E-02
    77.96    0.2975E-02
    81.44    0.3247E-02
    84.91    0.3562E-02
    88.39    0.3927E-02
    91.86    0.4356E-02
    95.34    0.4865E-02
    98.81    0.5477E-02
   102.29    0.6218E-02
   105.76    0.7129E-02
   109.23    0.8265E-02
   112.71    0.9702E-02
   116.18    0.1156E-01
   119.66    0.1400E-01
   123.13    0.1729E-01
   126.61    0.2185E-01
   130.08    0.2834E-01
   133.56    0.3786E-01
   137.03    0.5212E-01
   140.50    0.7333E-01
   143.98    0.1022    
   147.45    0.1309    
   150.93    0.1385    
   154.40    0.1173    
   157.88    0.8663E-01
   161.35    0.6149E-01
   164.83    0.4413E-01
   168.30    0.3258E-01
   171.78    0.2480E-01
   175.25    0.1942E-01
   178.72    0.1560E-01
   182.20    0.1280E-01
   185.67    0.1070E-01
   189.15    0.9096E-02
   192.62    0.7844E-02
   196.10    0.6852E-02
   199.57    0.6054E-02
   203.05    0.5406E-02
   206.52    0.4874E-02
   210.00    0.4436E-02
   213.47    0.4072E-02
   216.94    0.3771E-02
   220.42    0.3525E-02
   223.89    0.3328E-02
   227.37    0.3180E-02
   230.84    0.3084E-02
   234.32    0.3046E-02
   237.79    0.3069E-02
   241.27    0.3109E-02
   244.74    0.3060E-02
   248.21    0.2882E-02
   251.69    0.2669E-02
   255.16    0.2495E-02
   258.64    0.2373E-02
   262.11    0.2291E-02
   265.59    0.2240E-02
   269.06    0.2212E-02
   272.54    0.2203E-02
   276.01    0.2213E-02
   279.49    0.2240E-02
   282.96    0.2284E-02
   286.43    0.2347E-02
   289.91    0.2431E-02
   293.38    0.2540E-02
   296.86    0.2678E-02
   300.33    0.2852E-02
   303.81    0.3071E-02
   307.28    0.3348E-02
   310.76    0.3703E-02
   314.23    0.4163E-02
   317.71    0.4770E-02
   321.18    0.5590E-02
   324.65    0.6728E-02
   328.13    0.8350E-02
   331.60    0.1071E-01
   335.08    0.1409E-01
   338.55    0.1846E-01
   342.03    0.2242E-01
   345.50    0.2358E-01
   348.98    0.2236E-01
   352.45    0.2161E-01
   355.92    0.2310E-01
   359.40    0.2758E-01
   362.87    0.3532E-01
   366.35    0.4470E-01
   369.82    0.4956E-01
   373.30    0.4455E-01
   376.77    0.3416E-01
   380.25    0.2471E-01
   383.72    0.1797E-01
   387.20    0.1345E-01
   390.67    0.1040E-01
   394.14    0.8302E-02
   397.62    0.6809E-02
   401.09    0.5720E-02
   404.57    0.4904E-02
   408.04    0.4279E-02
   411.52    0.3792E-02
   414.99    0.3407E-02
   418.47    0.3097E-02
   421.94    0.2845E-02
   425.41    0.2639E-02
   428.89    0.2470E-02
   432.36    0.2329E-02
   435.84    0.2213E-02
   439.31    0.2117E-02
   442.79    0.2040E-02
   446.26    0.1978E-02
   449.74    0.1932E-02
   453.21    0.1902E-02
   456.69    0.1889E-02
   460.16    0.1898E-02
   463.63    0.1925E-02
   467.11    0.1953E-02
   470.58    0.1946E-02
   474.06    0.1903E-02
   477.53    0.1860E-02
   481.01    0.1835E-02
   484.48    0.1830E-02
   487.96    0.1841E-02
   491.43    0.1867E-02
   494.91    0.1907E-02
   498.38    0.1962E-02
   501.85    0.2032E-02
   505.33    0.2122E-02
   508.80    0.2236E-02
   512.28    0.2380E-02
   515.75    0.2565E-02
   519.23    0.2805E-02
   522.70    0.3122E-02
   526.18    0.3553E-02
   529.65    0.4154E-02
   533.12    0.5019E-02
   536.60    0.6295E-02
   540.07    0.8195E-02
   543.55    0.1089E-01
   547.02    0.1401E-01
   550.50    0.1579E-01
   553.97    0.1458E-01
   557.45    0.1164E-01
   560.92    0.8917E-02
   564.40    0.6993E-02
   567.87    0.5736E-02
   571.34    0.4928E-02
   574.82    0.4410E-02
   578.29    0.4081E-02
   581.77    0.3881E-02
   585.24    0.3773E-02
   588.72    0.3733E-02
   592.19    0.3749E-02
   595.67    0.3811E-02
   599.14    0.3917E-02
   602.62    0.4066E-02
   606.09    0.4259E-02
   609.56    0.4501E-02
   613.04    0.4789E-02
   616.51    0.5103E-02
   619.99    0.5432E-02
   623.46    0.5802E-02
   626.94    0.6251E-02
   630.41    0.6802E-02
   633.89    0.7478E-02
   637.36    0.8310E-02
   640.83    0.9337E-02
   644.31    0.1058E-01
   647.78    0.1198E-01
   651.26    0.1346E-01
   654.73    0.1517E-01
   658.21    0.1737E-01
   661.68    0.2030E-01
   665.16    0.2420E-01
   668.63    0.2940E-01
   672.11    0.3642E-01
   675.58    0.4621E-01
   679.05    0.6036E-01
   682.53    0.8139E-01
   686.00    0.1130    
   689.48    0.1594    
   692.95    0.2178    
   696.43    0.2631    
   699.90    0.2557    
   703.38    0.2033    
   706.85    0.1465    
   710.33    0.1040    
   713.80    0.7522E-01
   717.27    0.5607E-01
   720.75    0.4305E-01
   724.22    0.3396E-01
   727.70    0.2741E-01
   731.17    0.2256E-01
   734.65    0.1888E-01
   738.12    0.1603E-01
   741.60    0.1380E-01
   745.07    0.1200E-01
   748.54    0.1055E-01
   752.02    0.9353E-02
   755.49    0.8358E-02
   758.97    0.7522E-02
   762.44    0.6813E-02
   765.92    0.6207E-02
   769.39    0.5685E-02
   772.87    0.5232E-02
   776.34    0.4837E-02
   779.82    0.4491E-02
   783.29    0.4185E-02
   786.76    0.3914E-02
   790.24    0.3673E-02
   793.71    0.3457E-02
   797.19    0.3263E-02
   800.66    0.3089E-02
   804.14    0.2932E-02
   807.61    0.2790E-02
   811.09    0.2660E-02
   814.56    0.2542E-02
   818.03    0.2435E-02
   821.51    0.2336E-02
   824.98    0.2246E-02
   828.46    0.2163E-02
   831.93    0.2087E-02
   835.41    0.2017E-02
   838.88    0.1952E-02
   842.36    0.1892E-02
   845.83    0.1837E-02
   849.31    0.1786E-02
   852.78    0.1738E-02
   856.25    0.1694E-02
   859.73    0.1653E-02
   863.20    0.1615E-02
   866.68    0.1580E-02
   870.15    0.1548E-02
   873.63    0.1517E-02
   877.10    0.1489E-02
   880.58    0.1463E-02
   884.05    0.1439E-02
   887.53    0.1417E-02
   891.00    0.1396E-02
   894.47    0.1377E-02
   897.95    0.1360E-02
   901.42    0.1344E-02
   904.90    0.1330E-02
   908.37    0.1316E-02
   911.85    0.1305E-02
   915.32    0.1294E-02
   918.80    0.1285E-02
   922.27    0.1278E-02
   925.74    0.1271E-02
   929.22    0.1266E-02
   932.69    0.1262E-02
   936.17    0.1260E-02
   939.64    0.1258E-02
   943.12    0.1259E-02
   946.59    0.1261E-02
   950.07    0.1264E-02
   953.54    0.1269E-02
   957.02    0.1276E-02
   960.49    0.1285E-02
   963.96    0.1296E-02
   967.44    0.1310E-02
   970.91    0.1326E-02
   974.39    0.1346E-02
   977.86    0.1369E-02
   981.34    0.1397E-02
   984.81    0.1429E-02
   988.29    0.1467E-02
   991.76    0.1511E-02
   995.24    0.1564E-02
   998.71    0.1627E-02
  1002.18    0.1702E-02
  1005.66    0.1792E-02
  1009.13    0.1902E-02
  1012.61    0.2036E-02
  1016.08    0.2203E-02
  1019.56    0.2413E-02
  1023.03    0.2682E-02
  1026.51    0.3032E-02
  1029.98    0.3498E-02
  1033.45    0.4134E-02
  1036.93    0.5025E-02
  1040.40    0.6310E-02
  1043.88    0.8214E-02
  1047.35    0.1107E-01
  1050.83    0.1524E-01
  1054.30    0.2045E-01
  1057.78    0.2435E-01
  1061.25    0.2349E-01
  1064.73    0.1876E-01
  1068.20    0.1376E-01
  1071.67    0.1004E-01
  1075.15    0.7527E-02
  1078.62    0.5854E-02
  1082.10    0.4717E-02
  1085.57    0.3922E-02
  1089.05    0.3350E-02
  1092.52    0.2928E-02
  1096.00    0.2608E-02
  1099.47    0.2362E-02
  1102.94    0.2169E-02
  1106.42    0.2015E-02
  1109.89    0.1890E-02
  1113.37    0.1788E-02
  1116.84    0.1704E-02
  1120.32    0.1634E-02
  1123.79    0.1576E-02
  1127.27    0.1526E-02
  1130.74    0.1485E-02
  1134.22    0.1449E-02
  1137.69    0.1418E-02
  1141.16    0.1392E-02
  1144.64    0.1370E-02
  1148.11    0.1351E-02
  1151.59    0.1334E-02
  1155.06    0.1320E-02
  1158.54    0.1308E-02
  1162.01    0.1298E-02
  1165.49    0.1290E-02
  1168.96    0.1283E-02
  1172.44    0.1277E-02
  1175.91    0.1273E-02
  1179.38    0.1269E-02
  1182.86    0.1267E-02
  1186.33    0.1265E-02
  1189.81    0.1264E-02
  1193.28    0.1264E-02
  1196.76    0.1265E-02
  1200.23    0.1266E-02
  1203.71    0.1268E-02
  1207.18    0.1271E-02
  1210.65    0.1274E-02
  1214.13    0.1277E-02
  1217.60    0.1282E-02
  1221.08    0.1286E-02
  1224.55    0.1291E-02
  1228.03    0.1297E-02
  1231.50    0.1303E-02
  1234.98    0.1309E-02
  1238.45    0.1316E-02
  1241.93    0.1324E-02
  1245.40    0.1332E-02
  1248.87    0.1341E-02
  1252.35    0.1350E-02
  1255.82    0.1360E-02
  1259.30    0.1370E-02
  1262.77    0.1381E-02
  1266.25    0.1393E-02
  1269.72    0.1406E-02
  1273.20    0.1420E-02
  1276.67    0.1434E-02
  1280.15    0.1451E-02
  1283.62    0.1468E-02
  1287.09    0.1488E-02
  1290.57    0.1510E-02
  1294.04    0.1535E-02
  1297.52    0.1563E-02
  1300.99    0.1595E-02
  1304.47    0.1634E-02
  1307.94    0.1680E-02
  1311.42    0.1738E-02
  1314.89    0.1810E-02
  1318.36    0.1904E-02
  1321.84    0.2031E-02
  1325.31    0.2207E-02
  1328.79    0.2461E-02
  1332.26    0.2836E-02
  1335.74    0.3387E-02
  1339.21    0.4124E-02
  1342.69    0.4829E-02
  1346.16    0.4978E-02
  1349.64    0.4432E-02
  1353.11    0.3688E-02
  1356.58    0.3093E-02
  1360.06    0.2689E-02
  1363.53    0.2425E-02
  1367.01    0.2252E-02
  1370.48    0.2137E-02
  1373.96    0.2059E-02
  1377.43    0.2007E-02
  1380.91    0.1971E-02
  1384.38    0.1948E-02
  1387.86    0.1933E-02
  1391.33    0.1926E-02
  1394.80    0.1923E-02
  1398.28    0.1924E-02
  1401.75    0.1928E-02
  1405.23    0.1935E-02
  1408.70    0.1944E-02
  1412.18    0.1954E-02
  1415.65    0.1966E-02
  1419.13    0.1980E-02
  1422.60    0.1994E-02
  1426.07    0.2010E-02
  1429.55    0.2026E-02
  1433.02    0.2043E-02
  1436.50    0.2061E-02
  1439.97    0.2080E-02
  1443.45    0.2100E-02
  1446.92    0.2120E-02
  1450.40    0.2141E-02
  1453.87    0.2162E-02
  1457.35    0.2185E-02
  1460.82    0.2207E-02
  1464.29    0.2231E-02
  1467.77    0.2255E-02
  1471.24    0.2279E-02
  1474.72    0.2305E-02
  1478.19    0.2330E-02
  1481.67    0.2357E-02
  1485.14    0.2384E-02
  1488.62    0.2412E-02
  1492.09    0.2440E-02
  1495.56    0.2469E-02
  1499.04    0.2498E-02
  1502.51    0.2529E-02
  1505.99    0.2559E-02
  1509.46    0.2591E-02
  1512.94    0.2623E-02
  1516.41    0.2656E-02
  1519.89    0.2690E-02
  1523.36    0.2725E-02
  1526.84    0.2760E-02
  1530.31    0.2796E-02
  1533.78    0.2833E-02
  1537.26    0.2870E-02
  1540.73    0.2909E-02
  1544.21    0.2948E-02
  1547.68    0.2989E-02
  1551.16    0.3030E-02
  1554.63    0.3072E-02
  1558.11    0.3115E-02
  1561.58    0.3159E-02
  1565.06    0.3204E-02
  1568.53    0.3250E-02
  1572.00    0.3297E-02
  1575.48    0.3346E-02
  1578.95    0.3395E-02
  1582.43    0.3446E-02
  1585.90    0.3498E-02
  1589.38    0.3551E-02
  1592.85    0.3605E-02
  1596.33    0.3661E-02
  1599.80    0.3718E-02
  1603.27    0.3777E-02
  1606.75    0.3837E-02
  1610.22    0.3899E-02
  1613.70    0.3962E-02
  1617.17    0.4026E-02
  1620.65    0.4093E-02
  1624.12    0.4161E-02
  1627.60    0.4231E-02
  1631.07    0.4303E-02
  1634.55    0.4377E-02
  1638.02    0.4452E-02
  1641.49    0.4530E-02
  1644.97    0.4610E-02
  1648.44    0.4692E-02
  1651.92    0.4777E-02
  1655.39    0.4863E-02
  1658.87    0.4953E-02
  1662.34    0.5045E-02
  1665.82    0.5139E-02
  1669.29    0.5237E-02
  1672.77    0.5337E-02
  1676.24    0.5440E-02
  1679.71    0.5547E-02
  1683.19    0.5656E-02
  1686.66    0.5770E-02
  1690.14    0.5886E-02
  1693.61    0.6007E-02
  1697.09    0.6131E-02
  1700.56    0.6259E-02
  1704.04    0.6391E-02
  1707.51    0.6528E-02
  1710.98    0.6670E-02
  1714.46    0.6816E-02
  1717.93    0.6967E-02
  1721.41    0.7124E-02
  1724.88    0.7286E-02
  1728.36    0.7454E-02
  1731.83    0.7628E-02
  1735.31    0.7809E-02
  1738.78    0.7996E-02
  1742.26    0.8191E-02
  1745.73    0.8393E-02
  1749.20    0.8602E-02
  1752.68    0.8820E-02
  1756.15    0.9047E-02
  1759.63    0.9283E-02
  1763.10    0.9529E-02
  1766.58    0.9786E-02
  1770.05    0.1005E-01
  1773.53    0.1033E-01
  1777.00    0.1062E-01
  1780.48    0.1093E-01
  1783.95    0.1125E-01
  1787.42    0.1158E-01
  1790.90    0.1193E-01
  1794.37    0.1230E-01
  1797.85    0.1269E-01
  1801.32    0.1309E-01
  1804.80    0.1352E-01
  1808.27    0.1397E-01
  1811.75    0.1445E-01
  1815.22    0.1495E-01
  1818.69    0.1548E-01
  1822.17    0.1604E-01
  1825.64    0.1664E-01
  1829.12    0.1728E-01
  1832.59    0.1796E-01
  1836.07    0.1869E-01
  1839.54    0.1946E-01
  1843.02    0.2030E-01
  1846.49    0.2120E-01
  1849.97    0.2217E-01
  1853.44    0.2322E-01
  1856.91    0.2436E-01
  1860.39    0.2561E-01
  1863.86    0.2697E-01
  1867.34    0.2848E-01
  1870.81    0.3016E-01
  1874.29    0.3203E-01
  1877.76    0.3413E-01
  1881.24    0.3651E-01
  1884.71    0.3924E-01
  1888.18    0.4240E-01
  1891.66    0.4611E-01
  1895.13    0.5053E-01
  1898.61    0.5587E-01
  1902.08    0.6247E-01
  1905.56    0.7080E-01
  1909.03    0.8160E-01
  1912.51    0.9601E-01
  1915.98    0.1159    
  1919.46    0.1442    
  1922.93    0.1858    
  1926.40    0.2469    
  1929.88    0.3311    
  1933.35    0.4199    
  1936.83    0.4556    
  1940.30    0.4056    
  1943.78    0.3203    
  1947.25    0.2486    
  1950.73    0.2003    
  1954.20    0.1701    
  1957.68    0.1520    
  1961.15    0.1420    
  1964.62    0.1375    
  1968.10    0.1370    
  1971.57    0.1398    
  1975.05    0.1453    
  1978.52    0.1535    
  1982.00    0.1643    
  1985.47    0.1779    
  1988.95    0.1948    
  1992.42    0.2155    
  1995.89    0.2408    
  1999.37    0.2720    
  2002.84    0.3106    
  2006.32    0.3586    
  2009.79    0.4188    
  2013.27    0.4953    
  2016.74    0.5950    
  2020.22    0.7285    
  2023.69    0.9116    
  2027.17     1.169    
  2030.64     1.542    
  2034.11     2.096    
  2037.59     2.929    
  2041.06     4.133    
  2044.54     5.596    
  2048.01     6.591    
  2051.49     6.206    
  2054.96     4.834    
  2058.44     3.462    
  2061.91     2.456    
  2065.39     1.781    
  2068.86     1.331    
  2072.33     1.024    
  2075.81    0.8089    
  2079.28    0.6542    
  2082.76    0.5402    
  2086.23    0.4550    
  2089.71    0.3908    
  2093.18    0.3428    
  2096.66    0.3070    
  2100.13    0.2779    
  2103.60    0.2484    
  2107.08    0.2178    
  2110.55    0.1901    
  2114.03    0.1673    
  2117.50    0.1488    
  2120.98    0.1335    
  2124.45    0.1208    
  2127.93    0.1099    
  2131.40    0.1006    
  2134.88    0.9245E-01
  2138.35    0.8534E-01
  2141.82    0.7903E-01
  2145.30    0.7338E-01
  2148.77    0.6831E-01
  2152.25    0.6375E-01
  2155.72    0.5964E-01
  2159.20    0.5592E-01
  2162.67    0.5256E-01
  2166.15    0.4949E-01
  2169.62    0.4668E-01
  2173.09    0.4412E-01
  2176.57    0.4176E-01
  2180.04    0.3958E-01
  2183.52    0.3758E-01
  2186.99    0.3572E-01
  2190.47    0.3400E-01
  2193.94    0.3240E-01
  2197.42    0.3091E-01
  2200.89    0.2952E-01
  2204.37    0.2823E-01
  2207.84    0.2702E-01
  2211.31    0.2588E-01
  2214.79    0.2482E-01
  2218.26    0.2382E-01
  2221.74    0.2288E-01
  2225.21    0.2199E-01
  2228.69    0.2116E-01
  2232.16    0.2037E-01
  2235.64    0.1962E-01
  2239.11    0.1892E-01
  2242.59    0.1825E-01
  2246.06    0.1762E-01
  2249.53    0.1702E-01
  2253.01    0.1645E-01
  2256.48    0.1591E-01
  2259.96    0.1540E-01
  2263.43    0.1491E-01
  2266.91    0.1444E-01
  2270.38    0.1399E-01
  2273.86    0.1357E-01
  2277.33    0.1316E-01
  2280.80    0.1278E-01
  2284.28    0.1240E-01
  2287.75    0.1205E-01
  2291.23    0.1171E-01
  2294.70    0.1138E-01
  2298.18    0.1107E-01
  2301.65    0.1077E-01
  2305.13    0.1049E-01
  2308.60    0.1021E-01
  2312.08    0.9945E-02
  2315.55    0.9690E-02
  2319.02    0.9445E-02
  2322.50    0.9209E-02
  2325.97    0.8981E-02
  2329.45    0.8763E-02
  2332.92    0.8552E-02
  2336.40    0.8348E-02
  2339.87    0.8152E-02
  2343.35    0.7963E-02
  2346.82    0.7780E-02
  2350.30    0.7603E-02
  2353.77    0.7433E-02
  2357.24    0.7268E-02
  2360.72    0.7109E-02
  2364.19    0.6954E-02
  2367.67    0.6805E-02
  2371.14    0.6661E-02
  2374.62    0.6521E-02
  2378.09    0.6385E-02
  2381.57    0.6254E-02
  2385.04    0.6127E-02
  2388.51    0.6003E-02
  2391.99    0.5884E-02
  2395.46    0.5767E-02
  2398.94    0.5655E-02
  2402.41    0.5545E-02
  2405.89    0.5439E-02
  2409.36    0.5336E-02
  2412.84    0.5235E-02
  2416.31    0.5138E-02
  2419.79    0.5043E-02
  2423.26    0.4951E-02
  2426.73    0.4861E-02
  2430.21    0.4774E-02
  2433.68    0.4689E-02
  2437.16    0.4606E-02
  2440.63    0.4526E-02
  2444.11    0.4448E-02
  2447.58    0.4371E-02
  2451.06    0.4297E-02
  2454.53    0.4224E-02
  2458.01    0.4154E-02
  2461.48    0.4085E-02
  2464.95    0.4018E-02
  2468.43    0.3952E-02
  2471.90    0.3888E-02
  2475.38    0.3826E-02
  2478.85    0.3765E-02
  2482.33    0.3705E-02
  2485.80    0.3647E-02
  2489.28    0.3591E-02
  2492.75    0.3535E-02
  2496.22    0.3481E-02
  2499.70    0.3428E-02
  2503.17    0.3377E-02
  2506.65    0.3326E-02
  2510.12    0.3277E-02
  2513.60    0.3229E-02
  2517.07    0.3182E-02
  2520.55    0.3135E-02
  2524.02    0.3090E-02
  2527.50    0.3046E-02
  2530.97    0.3003E-02
  2534.44    0.2960E-02
  2537.92    0.2919E-02
  2541.39    0.2879E-02
  2544.87    0.2839E-02
  2548.34    0.2800E-02
  2551.82    0.2762E-02
  2555.29    0.2725E-02
  2558.77    0.2688E-02
  2562.24    0.2652E-02
  2565.71    0.2617E-02
  2569.19    0.2583E-02
  2572.66    0.2549E-02
  2576.14    0.2516E-02
  2579.61    0.2483E-02
  2583.09    0.2452E-02
  2586.56    0.2420E-02
  2590.04    0.2390E-02
  2593.51    0.2360E-02
  2596.99    0.2330E-02
  2600.46    0.2302E-02
  2603.93    0.2273E-02
  2607.41    0.2245E-02
  2610.88    0.2218E-02
  2614.36    0.2191E-02
  2617.83    0.2165E-02
  2621.31    0.2139E-02
  2624.78    0.2114E-02
  2628.26    0.2089E-02
  2631.73    0.2064E-02
  2635.21    0.2040E-02
  2638.68    0.2017E-02
  2642.15    0.1993E-02
  2645.63    0.1971E-02
  2649.10    0.1948E-02
  2652.58    0.1926E-02
  2656.05    0.1904E-02
  2659.53    0.1883E-02
  2663.00    0.1862E-02
  2666.48    0.1842E-02
  2669.95    0.1821E-02
  2673.42    0.1801E-02
  2676.90    0.1782E-02
  2680.37    0.1763E-02
  2683.85    0.1744E-02
  2687.32    0.1725E-02
  2690.80    0.1707E-02
  2694.27    0.1689E-02
  2697.75    0.1671E-02
  2701.22    0.1653E-02
  2704.70    0.1636E-02
  2708.17    0.1619E-02
  2711.64    0.1603E-02
  2715.12    0.1586E-02
  2718.59    0.1570E-02
  2722.07    0.1554E-02
  2725.54    0.1539E-02
  2729.02    0.1523E-02
  2732.49    0.1508E-02
  2735.97    0.1493E-02
  2739.44    0.1478E-02
  2742.92    0.1464E-02
  2746.39    0.1450E-02
  2749.86    0.1435E-02
  2753.34    0.1422E-02
  2756.81    0.1408E-02
  2760.29    0.1394E-02
  2763.76    0.1381E-02
  2767.24    0.1368E-02
  2770.71    0.1355E-02
  2774.19    0.1343E-02
  2777.66    0.1330E-02
  2781.13    0.1318E-02
  2784.61    0.1306E-02
  2788.08    0.1294E-02
  2791.56    0.1282E-02
  2795.03    0.1270E-02
  2798.51    0.1259E-02
  2801.98    0.1247E-02
  2805.46    0.1236E-02
  2808.93    0.1225E-02
  2812.41    0.1214E-02
  2815.88    0.1203E-02
  2819.35    0.1193E-02
  2822.83    0.1182E-02
  2826.30    0.1172E-02
  2829.78    0.1162E-02
  2833.25    0.1152E-02
  2836.73    0.1142E-02
  2840.20    0.1132E-02
  2843.68    0.1123E-02
  2847.15    0.1113E-02
  2850.63    0.1104E-02
  2854.10    0.1095E-02
  2857.57    0.1085E-02
  2861.05    0.1076E-02
  2864.52    0.1068E-02
  2868.00    0.1059E-02
  2871.47    0.1050E-02
  2874.95    0.1042E-02
  2878.42    0.1033E-02
  2881.90    0.1025E-02
  2885.37    0.1017E-02
  2888.84    0.1008E-02
  2892.32    0.1000E-02
  2895.79    0.9925E-03
  2899.27    0.9847E-03
  2902.74    0.9770E-03
  2906.22    0.9694E-03
  2909.69    0.9618E-03
  2913.17    0.9544E-03
  2916.64    0.9471E-03
  2920.12    0.9398E-03
  2923.59    0.9326E-03
  2927.06    0.9256E-03
  2930.54    0.9186E-03
  2934.01    0.9117E-03
  2937.49    0.9049E-03
  2940.96    0.8981E-03
  2944.44    0.8915E-03
  2947.91    0.8849E-03
  2951.39    0.8784E-03
  2954.86    0.8720E-03
  2958.33    0.8657E-03
  2961.81    0.8594E-03
  2965.28    0.8533E-03
  2968.76    0.8472E-03
  2972.23    0.8411E-03
  2975.71    0.8352E-03
  2979.18    0.8293E-03
  2982.66    0.8235E-03
  2986.13    0.8178E-03
  2989.61    0.8121E-03
  2993.08    0.8065E-03
  2996.55    0.8009E-03
  3000.03    0.7955E-03
  3003.50    0.7901E-03
  3006.98    0.7847E-03
  3010.45    0.7795E-03
  3013.93    0.7743E-03
  3017.40    0.7691E-03
  3020.88    0.7641E-03
  3024.35    0.7590E-03
  3027.83    0.7541E-03
  3031.30    0.7492E-03
  3034.77    0.7444E-03
  3038.25    0.7396E-03
  3041.72    0.7349E-03
  3045.20    0.7302E-03
  3048.67    0.7257E-03
  3052.15    0.7211E-03
  3055.62    0.7166E-03
  3059.10    0.7122E-03
  3062.57    0.7079E-03
  3066.04    0.7036E-03
  3069.52    0.6993E-03
  3072.99    0.6951E-03
  3076.47    0.6910E-03
  3079.94    0.6869E-03
  3083.42    0.6829E-03
  3086.89    0.6790E-03
  3090.37    0.6750E-03
  3093.84    0.6712E-03
  3097.32    0.6674E-03
  3100.79    0.6637E-03
  3104.26    0.6600E-03
  3107.74    0.6563E-03
  3111.21    0.6528E-03
  3114.69    0.6493E-03
  3118.16    0.6458E-03
  3121.64    0.6424E-03
  3125.11    0.6391E-03
  3128.59    0.6358E-03
  3132.06    0.6325E-03
  3135.54    0.6294E-03
  3139.01    0.6262E-03
  3142.48    0.6232E-03
  3145.96    0.6202E-03
  3149.43    0.6173E-03
  3152.91    0.6144E-03
  3156.38    0.6116E-03
  3159.86    0.6088E-03
  3163.33    0.6062E-03
  3166.81    0.6035E-03
  3170.28    0.6010E-03
  3173.75    0.5985E-03
  3177.23    0.5961E-03
  3180.70    0.5938E-03
  3184.18    0.5915E-03
  3187.65    0.5893E-03
  3191.13    0.5872E-03
  3194.60    0.5852E-03
  3198.08    0.5833E-03
  3201.55    0.5814E-03
  3205.03    0.5796E-03
  3208.50    0.5780E-03
  3211.97    0.5764E-03
  3215.45    0.5749E-03
  3218.92    0.5735E-03
  3222.40    0.5723E-03
  3225.87    0.5711E-03
  3229.35    0.5701E-03
  3232.82    0.5692E-03
  3236.30    0.5684E-03
  3239.77    0.5678E-03
  3243.25    0.5673E-03
  3246.72    0.5670E-03
  3250.19    0.5668E-03
  3253.67    0.5668E-03
  3257.14    0.5670E-03
  3260.62    0.5675E-03
  3264.09    0.5681E-03
  3267.57    0.5689E-03
  3271.04    0.5700E-03
  3274.52    0.5714E-03
  3277.99    0.5731E-03
  3281.46    0.5750E-03
  3284.94    0.5774E-03
  3288.41    0.5800E-03
  3291.89    0.5831E-03
  3295.36    0.5866E-03
  3298.84    0.5906E-03
  3302.31    0.5952E-03
  3305.79    0.6003E-03
  3309.26    0.6060E-03
  3312.74    0.6125E-03
  3316.21    0.6198E-03
  3319.68    0.6279E-03
  3323.16    0.6370E-03
  3326.63    0.6473E-03
  3330.11    0.6588E-03
  3333.58    0.6717E-03
  3337.06    0.6862E-03
  3340.53    0.7026E-03
  3344.01    0.7211E-03
  3347.48    0.7421E-03
  3350.95    0.7658E-03
  3354.43    0.7929E-03
  3357.90    0.8239E-03
  3361.38    0.8595E-03
  3364.85    0.9005E-03
  3368.33    0.9482E-03
  3371.80    0.1004E-02
  3375.28    0.1069E-02
  3378.75    0.1146E-02
  3382.23    0.1239E-02
  3385.70    0.1350E-02
  3389.17    0.1485E-02
  3392.65    0.1652E-02
  3396.12    0.1861E-02
  3399.60    0.2126E-02
  3403.07    0.2469E-02
  3406.55    0.2921E-02
  3410.02    0.3532E-02
  3413.50    0.4380E-02
  3416.97    0.5589E-02
  3420.45    0.7364E-02
  3423.92    0.1002E-01
  3427.39    0.1398E-01
  3430.87    0.1936E-01
  3434.34    0.2466E-01
  3437.82    0.2600E-01
  3441.29    0.2202E-01
  3444.77    0.1631E-01
  3448.24    0.1166E-01
  3451.72    0.8444E-02
  3455.19    0.6304E-02
  3458.66    0.4861E-02
  3462.14    0.3862E-02
  3465.61    0.3150E-02
  3469.09    0.2628E-02
  3472.56    0.2236E-02
  3476.04    0.1934E-02
  3479.51    0.1698E-02
  3482.99    0.1509E-02
  3486.46    0.1357E-02
  3489.94    0.1231E-02
  3493.41    0.1127E-02
  3496.88    0.1040E-02
  3500.36    0.9654E-03
