
 ------------------------------------------------------------
     normal          Raman Scattering Plot
 ------------------------------------------------------------
 Excitation wavelength  514.50 nm
 Convolution lineshape is lorentzian  
 FWHM   20.00  1/cm
 ------------------------------------------------------------
 ------------------------------------------------------------
 # of frequencies :    30
 ------------------------------------------------------------
 #  freq [ 1/cm]  S [Ang**4/amu]
 ------------------------------------------------------------
   1    40.61        0.0001
   2   109.56        2.1292
   3   109.56        2.0662
   4   205.33        0.0320
   5   205.33        0.0009
   6   308.95        0.9179
   7   308.95        0.8625
   8   386.07        7.8600
   9   441.01        0.0087
  10   441.01        0.0328
  11   525.63        1.5516
  12   525.63        1.5494
  13   599.07        0.0002
  14   599.07        0.0172
  15   640.59        6.7110
  16   640.59        6.6837
  17   666.84        0.1162
  18   666.84        0.0181
  19   681.01       61.4184
  20   681.01       61.4185
  21   759.29        1.0591
  22  1105.35       14.2676
  23  1408.38        1.9109
  24  1989.93      432.2114
  25  2072.67        0.1818
  26  2130.86     7678.2195
  27  2176.04        0.6032
  28  2223.80        0.3012
  29  3439.95       66.5662
  30  3442.11        6.4368
 ------------------------------------------------------------
   -15.86    0.1840E-02
   -12.34    0.1932E-02
    -8.81    0.2033E-02
    -5.29    0.2142E-02
    -1.76    0.2262E-02
     1.76    0.2393E-02
     5.29    0.2538E-02
     8.81    0.2698E-02
    12.34    0.2875E-02
    15.86    0.3072E-02
    19.39    0.3292E-02
    22.91    0.3539E-02
    26.44    0.3819E-02
    29.96    0.4136E-02
    33.49    0.4499E-02
    37.01    0.4914E-02
    40.54    0.5387E-02
    44.06    0.5926E-02
    47.59    0.6553E-02
    51.11    0.7294E-02
    54.64    0.8178E-02
    58.16    0.9245E-02
    61.69    0.1054E-01
    65.21    0.1214E-01
    68.74    0.1415E-01
    72.26    0.1669E-01
    75.79    0.1998E-01
    79.31    0.2434E-01
    82.84    0.3025E-01
    86.36    0.3849E-01
    89.89    0.5031E-01
    93.41    0.6778E-01
    96.94    0.9412E-01
   100.46    0.1334    
   103.99    0.1858    
   107.51    0.2336    
   111.04    0.2382    
   114.56    0.1948    
   118.09    0.1411    
   121.61    0.9952E-01
   125.14    0.7138E-01
   128.66    0.5274E-01
   132.19    0.4019E-01
   135.71    0.3150E-01
   139.24    0.2529E-01
   142.76    0.2073E-01
   146.29    0.1731E-01
   149.81    0.1467E-01
   153.34    0.1261E-01
   156.86    0.1097E-01
   160.39    0.9647E-02
   163.91    0.8564E-02
   167.44    0.7670E-02
   170.96    0.6926E-02
   174.49    0.6302E-02
   178.01    0.5778E-02
   181.54    0.5337E-02
   185.06    0.4970E-02
   188.59    0.4670E-02
   192.12    0.4437E-02
   195.64    0.4276E-02
   199.17    0.4184E-02
   202.69    0.4122E-02
   206.22    0.3986E-02
   209.74    0.3733E-02
   213.27    0.3456E-02
   216.79    0.3223E-02
   220.32    0.3043E-02
   223.84    0.2905E-02
   227.37    0.2798E-02
   230.89    0.2715E-02
   234.42    0.2651E-02
   237.94    0.2605E-02
   241.47    0.2575E-02
   244.99    0.2561E-02
   248.52    0.2562E-02
   252.04    0.2580E-02
   255.57    0.2616E-02
   259.09    0.2674E-02
   262.62    0.2758E-02
   266.14    0.2874E-02
   269.67    0.3030E-02
   273.19    0.3239E-02
   276.72    0.3520E-02
   280.24    0.3902E-02
   283.77    0.4430E-02
   287.29    0.5179E-02
   290.82    0.6268E-02
   294.34    0.7891E-02
   297.87    0.1033E-01
   301.39    0.1386E-01
   304.92    0.1807E-01
   308.44    0.2068E-01
   311.97    0.1926E-01
   315.49    0.1534E-01
   319.02    0.1167E-01
   322.54    0.9111E-02
   326.07    0.7477E-02
   329.59    0.6476E-02
   333.12    0.5896E-02
   336.64    0.5609E-02
   340.17    0.5546E-02
   343.69    0.5677E-02
   347.22    0.5997E-02
   350.74    0.6529E-02
   354.27    0.7320E-02
   357.79    0.8459E-02
   361.32    0.1009E-01
   364.84    0.1246E-01
   368.37    0.1596E-01
   371.89    0.2125E-01
   375.42    0.2926E-01
   378.94    0.4074E-01
   382.47    0.5384E-01
   385.99    0.6062E-01
   389.52    0.5434E-01
   393.04    0.4127E-01
   396.57    0.2961E-01
   400.09    0.2141E-01
   403.62    0.1598E-01
   407.14    0.1236E-01
   410.67    0.9886E-02
   414.19    0.8152E-02
   417.72    0.6903E-02
   421.24    0.5985E-02
   424.77    0.5300E-02
   428.29    0.4788E-02
   431.82    0.4409E-02
   435.34    0.4134E-02
   438.87    0.3924E-02
   442.39    0.3724E-02
   445.92    0.3516E-02
   449.44    0.3332E-02
   452.97    0.3191E-02
   456.49    0.3090E-02
   460.02    0.3024E-02
   463.54    0.2985E-02
   467.07    0.2972E-02
   470.59    0.2982E-02
   474.12    0.3016E-02
   477.64    0.3075E-02
   481.17    0.3162E-02
   484.69    0.3283E-02
   488.22    0.3445E-02
   491.74    0.3662E-02
   495.27    0.3951E-02
   498.79    0.4344E-02
   502.32    0.4887E-02
   505.84    0.5659E-02
   509.37    0.6787E-02
   512.89    0.8471E-02
   516.42    0.1096E-01
   519.94    0.1431E-01
   523.47    0.1743E-01
   526.99    0.1792E-01
   530.52    0.1536E-01
   534.04    0.1208E-01
   537.57    0.9553E-02
   541.09    0.7888E-02
   544.62    0.6841E-02
   548.14    0.6197E-02
   551.67    0.5814E-02
   555.19    0.5607E-02
   558.72    0.5526E-02
   562.24    0.5539E-02
   565.77    0.5629E-02
   569.29    0.5785E-02
   572.82    0.6003E-02
   576.34    0.6281E-02
   579.87    0.6623E-02
   583.39    0.7035E-02
   586.92    0.7525E-02
   590.44    0.8108E-02
   593.97    0.8800E-02
   597.49    0.9618E-02
   601.02    0.1058E-01
   604.54    0.1174E-01
   608.07    0.1317E-01
   611.59    0.1496E-01
   615.12    0.1726E-01
   618.64    0.2029E-01
   622.17    0.2440E-01
   625.69    0.3015E-01
   629.22    0.3837E-01
   632.74    0.4991E-01
   636.27    0.6405E-01
   639.79    0.7520E-01
   643.32    0.7640E-01
   646.84    0.7131E-01
   650.37    0.6826E-01
   653.89    0.7077E-01
   657.42    0.7980E-01
   660.94    0.9662E-01
   664.47    0.1240    
   667.99    0.1670    
   671.52    0.2326    
   675.04    0.3227    
   678.57    0.4110    
   682.09    0.4298    
   685.62    0.3589    
   689.14    0.2624    
   692.67    0.1854    
   696.19    0.1328    
   699.72    0.9794E-01
   703.24    0.7451E-01
   706.77    0.5830E-01
   710.29    0.4675E-01
   713.82    0.3829E-01
   717.34    0.3193E-01
   720.87    0.2706E-01
   724.39    0.2325E-01
   727.92    0.2023E-01
   731.44    0.1782E-01
   734.97    0.1587E-01
   738.49    0.1432E-01
   742.02    0.1310E-01
   745.54    0.1221E-01
   749.07    0.1164E-01
   752.59    0.1141E-01
   756.12    0.1135E-01
   759.64    0.1097E-01
   763.17    0.9959E-02
   766.69    0.8716E-02
   770.22    0.7639E-02
   773.74    0.6801E-02
   777.27    0.6151E-02
   780.79    0.5632E-02
   784.32    0.5205E-02
   787.84    0.4844E-02
   791.37    0.4533E-02
   794.89    0.4261E-02
   798.42    0.4020E-02
   801.94    0.3805E-02
   805.47    0.3612E-02
   808.99    0.3436E-02
   812.52    0.3277E-02
   816.04    0.3131E-02
   819.57    0.2998E-02
   823.09    0.2875E-02
   826.62    0.2762E-02
   830.14    0.2657E-02
   833.67    0.2560E-02
   837.19    0.2470E-02
   840.72    0.2386E-02
   844.24    0.2308E-02
   847.77    0.2235E-02
   851.29    0.2167E-02
   854.82    0.2104E-02
   858.34    0.2044E-02
   861.87    0.1988E-02
   865.39    0.1936E-02
   868.92    0.1887E-02
   872.44    0.1841E-02
   875.97    0.1797E-02
   879.49    0.1756E-02
   883.02    0.1718E-02
   886.54    0.1682E-02
   890.07    0.1647E-02
   893.59    0.1615E-02
   897.12    0.1585E-02
   900.64    0.1557E-02
   904.17    0.1530E-02
   907.69    0.1504E-02
   911.22    0.1481E-02
   914.74    0.1458E-02
   918.27    0.1438E-02
   921.79    0.1418E-02
   925.32    0.1400E-02
   928.84    0.1382E-02
   932.37    0.1366E-02
   935.89    0.1352E-02
   939.42    0.1338E-02
   942.94    0.1325E-02
   946.47    0.1314E-02
   949.99    0.1303E-02
   953.52    0.1294E-02
   957.04    0.1286E-02
   960.57    0.1278E-02
   964.09    0.1272E-02
   967.62    0.1267E-02
   971.14    0.1263E-02
   974.67    0.1260E-02
   978.19    0.1258E-02
   981.72    0.1258E-02
   985.24    0.1259E-02
   988.77    0.1261E-02
   992.29    0.1265E-02
   995.82    0.1270E-02
   999.34    0.1277E-02
  1002.87    0.1287E-02
  1006.39    0.1298E-02
  1009.92    0.1312E-02
  1013.44    0.1328E-02
  1016.97    0.1347E-02
  1020.49    0.1370E-02
  1024.02    0.1397E-02
  1027.54    0.1429E-02
  1031.07    0.1466E-02
  1034.59    0.1510E-02
  1038.12    0.1562E-02
  1041.64    0.1623E-02
  1045.17    0.1696E-02
  1048.69    0.1784E-02
  1052.22    0.1889E-02
  1055.74    0.2018E-02
  1059.27    0.2176E-02
  1062.79    0.2374E-02
  1066.32    0.2623E-02
  1069.84    0.2945E-02
  1073.37    0.3367E-02
  1076.89    0.3932E-02
  1080.42    0.4711E-02
  1083.94    0.5813E-02
  1087.47    0.7421E-02
  1090.99    0.9827E-02
  1094.52    0.1346E-01
  1098.04    0.1868E-01
  1101.57    0.2475E-01
  1105.09    0.2814E-01
  1108.62    0.2553E-01
  1112.15    0.1956E-01
  1115.67    0.1412E-01
  1119.20    0.1027E-01
  1122.72    0.7710E-02
  1126.25    0.6006E-02
  1129.77    0.4843E-02
  1133.30    0.4024E-02
  1136.82    0.3431E-02
  1140.35    0.2991E-02
  1143.87    0.2656E-02
  1147.40    0.2396E-02
  1150.92    0.2190E-02
  1154.45    0.2025E-02
  1157.97    0.1892E-02
  1161.50    0.1782E-02
  1165.02    0.1690E-02
  1168.55    0.1614E-02
  1172.07    0.1549E-02
  1175.60    0.1494E-02
  1179.12    0.1447E-02
  1182.65    0.1406E-02
  1186.17    0.1372E-02
  1189.70    0.1341E-02
  1193.22    0.1315E-02
  1196.75    0.1292E-02
  1200.27    0.1272E-02
  1203.80    0.1255E-02
  1207.32    0.1240E-02
  1210.85    0.1226E-02
  1214.37    0.1215E-02
  1217.90    0.1205E-02
  1221.42    0.1196E-02
  1224.95    0.1189E-02
  1228.47    0.1183E-02
  1232.00    0.1177E-02
  1235.52    0.1173E-02
  1239.05    0.1169E-02
  1242.57    0.1167E-02
  1246.10    0.1165E-02
  1249.62    0.1163E-02
  1253.15    0.1162E-02
  1256.67    0.1162E-02
  1260.20    0.1163E-02
  1263.72    0.1163E-02
  1267.25    0.1165E-02
  1270.77    0.1167E-02
  1274.30    0.1169E-02
  1277.82    0.1171E-02
  1281.35    0.1174E-02
  1284.87    0.1178E-02
  1288.40    0.1182E-02
  1291.92    0.1186E-02
  1295.45    0.1191E-02
  1298.97    0.1196E-02
  1302.50    0.1202E-02
  1306.02    0.1207E-02
  1309.55    0.1214E-02
  1313.07    0.1221E-02
  1316.60    0.1228E-02
  1320.12    0.1236E-02
  1323.65    0.1244E-02
  1327.17    0.1253E-02
  1330.70    0.1263E-02
  1334.22    0.1273E-02
  1337.75    0.1284E-02
  1341.27    0.1297E-02
  1344.80    0.1310E-02
  1348.32    0.1325E-02
  1351.85    0.1341E-02
  1355.37    0.1359E-02
  1358.90    0.1380E-02
  1362.42    0.1404E-02
  1365.95    0.1432E-02
  1369.47    0.1465E-02
  1373.00    0.1505E-02
  1376.52    0.1556E-02
  1380.05    0.1621E-02
  1383.57    0.1708E-02
  1387.10    0.1827E-02
  1390.62    0.1996E-02
  1394.15    0.2245E-02
  1397.67    0.2617E-02
  1401.20    0.3144E-02
  1404.72    0.3747E-02
  1408.25    0.4072E-02
  1411.77    0.3808E-02
  1415.30    0.3231E-02
  1418.82    0.2715E-02
  1422.35    0.2354E-02
  1425.87    0.2120E-02
  1429.40    0.1967E-02
  1432.92    0.1867E-02
  1436.45    0.1800E-02
  1439.97    0.1756E-02
  1443.50    0.1726E-02
  1447.02    0.1707E-02
  1450.55    0.1695E-02
  1454.07    0.1689E-02
  1457.60    0.1687E-02
  1461.12    0.1688E-02
  1464.65    0.1692E-02
  1468.17    0.1698E-02
  1471.70    0.1706E-02
  1475.22    0.1715E-02
  1478.75    0.1725E-02
  1482.27    0.1736E-02
  1485.80    0.1749E-02
  1489.32    0.1762E-02
  1492.85    0.1776E-02
  1496.37    0.1791E-02
  1499.90    0.1806E-02
  1503.42    0.1822E-02
  1506.95    0.1839E-02
  1510.47    0.1856E-02
  1514.00    0.1873E-02
  1517.52    0.1892E-02
  1521.05    0.1910E-02
  1524.57    0.1930E-02
  1528.10    0.1949E-02
  1531.62    0.1970E-02
  1535.15    0.1990E-02
  1538.67    0.2012E-02
  1542.20    0.2033E-02
  1545.72    0.2056E-02
  1549.25    0.2078E-02
  1552.77    0.2102E-02
  1556.30    0.2126E-02
  1559.82    0.2150E-02
  1563.35    0.2175E-02
  1566.87    0.2201E-02
  1570.40    0.2227E-02
  1573.92    0.2254E-02
  1577.45    0.2281E-02
  1580.97    0.2309E-02
  1584.50    0.2337E-02
  1588.02    0.2366E-02
  1591.55    0.2396E-02
  1595.07    0.2427E-02
  1598.60    0.2458E-02
  1602.12    0.2490E-02
  1605.65    0.2522E-02
  1609.17    0.2556E-02
  1612.70    0.2590E-02
  1616.22    0.2624E-02
  1619.75    0.2660E-02
  1623.27    0.2697E-02
  1626.80    0.2734E-02
  1630.32    0.2772E-02
  1633.85    0.2811E-02
  1637.37    0.2851E-02
  1640.90    0.2892E-02
  1644.42    0.2934E-02
  1647.95    0.2977E-02
  1651.47    0.3021E-02
  1655.00    0.3066E-02
  1658.52    0.3112E-02
  1662.05    0.3159E-02
  1665.57    0.3208E-02
  1669.10    0.3258E-02
  1672.62    0.3308E-02
  1676.15    0.3361E-02
  1679.67    0.3414E-02
  1683.20    0.3469E-02
  1686.72    0.3526E-02
  1690.25    0.3584E-02
  1693.77    0.3643E-02
  1697.30    0.3704E-02
  1700.82    0.3767E-02
  1704.35    0.3831E-02
  1707.87    0.3897E-02
  1711.40    0.3965E-02
  1714.92    0.4035E-02
  1718.45    0.4107E-02
  1721.97    0.4181E-02
  1725.50    0.4257E-02
  1729.02    0.4336E-02
  1732.55    0.4416E-02
  1736.07    0.4499E-02
  1739.60    0.4585E-02
  1743.12    0.4673E-02
  1746.65    0.4764E-02
  1750.17    0.4858E-02
  1753.70    0.4955E-02
  1757.22    0.5055E-02
  1760.75    0.5158E-02
  1764.27    0.5264E-02
  1767.80    0.5374E-02
  1771.32    0.5488E-02
  1774.85    0.5606E-02
  1778.37    0.5727E-02
  1781.90    0.5854E-02
  1785.42    0.5984E-02
  1788.95    0.6119E-02
  1792.47    0.6260E-02
  1796.00    0.6405E-02
  1799.52    0.6556E-02
  1803.05    0.6713E-02
  1806.57    0.6876E-02
  1810.10    0.7045E-02
  1813.62    0.7221E-02
  1817.15    0.7405E-02
  1820.67    0.7596E-02
  1824.20    0.7795E-02
  1827.72    0.8004E-02
  1831.25    0.8221E-02
  1834.77    0.8448E-02
  1838.30    0.8686E-02
  1841.82    0.8935E-02
  1845.35    0.9197E-02
  1848.87    0.9471E-02
  1852.40    0.9759E-02
  1855.92    0.1006E-01
  1859.45    0.1038E-01
  1862.97    0.1072E-01
  1866.50    0.1108E-01
  1870.02    0.1145E-01
  1873.55    0.1185E-01
  1877.07    0.1228E-01
  1880.60    0.1273E-01
  1884.12    0.1321E-01
  1887.65    0.1373E-01
  1891.17    0.1429E-01
  1894.70    0.1488E-01
  1898.22    0.1553E-01
  1901.75    0.1622E-01
  1905.27    0.1698E-01
  1908.80    0.1780E-01
  1912.32    0.1871E-01
  1915.85    0.1971E-01
  1919.37    0.2082E-01
  1922.90    0.2205E-01
  1926.42    0.2344E-01
  1929.95    0.2501E-01
  1933.47    0.2680E-01
  1937.00    0.2888E-01
  1940.52    0.3130E-01
  1944.05    0.3417E-01
  1947.57    0.3762E-01
  1951.10    0.4184E-01
  1954.62    0.4710E-01
  1958.15    0.5381E-01
  1961.67    0.6258E-01
  1965.20    0.7440E-01
  1968.72    0.9084E-01
  1972.25    0.1145    
  1975.77    0.1494    
  1979.30    0.2016    
  1982.82    0.2758    
  1986.35    0.3601    
  1989.87    0.4041    
  1993.40    0.3656    
  1996.92    0.2846    
  2000.45    0.2128    
  2003.97    0.1630    
  2007.50    0.1308    
  2011.02    0.1102    
  2014.55    0.9710E-01
  2018.07    0.8883E-01
  2021.60    0.8387E-01
  2025.12    0.8125E-01
  2028.65    0.8040E-01
  2032.18    0.8095E-01
  2035.70    0.8271E-01
  2039.23    0.8554E-01
  2042.75    0.8939E-01
  2046.28    0.9429E-01
  2049.80    0.1003    
  2053.33    0.1074    
  2056.85    0.1160    
  2060.38    0.1260    
  2063.90    0.1379    
  2067.43    0.1519    
  2070.95    0.1686    
  2074.48    0.1885    
  2078.00    0.2125    
  2081.53    0.2416    
  2085.05    0.2774    
  2088.58    0.3221    
  2092.10    0.3785    
  2095.63    0.4512    
  2099.15    0.5466    
  2102.68    0.6747    
  2106.20    0.8512    
  2109.73     1.102    
  2113.25     1.467    
  2116.78     2.016    
  2120.30     2.843    
  2123.83     4.021    
  2127.35     5.351    
  2130.88     6.008    
  2134.40     5.338    
  2137.93     4.007    
  2141.45     2.832    
  2144.98     2.008    
  2148.50     1.462    
  2152.03     1.097    
  2155.55    0.8478    
  2159.08    0.6716    
  2162.60    0.5437    
  2166.13    0.4484    
  2169.65    0.3758    
  2173.18    0.3192    
  2176.70    0.2744    
  2180.23    0.2382    
  2183.75    0.2086    
  2187.28    0.1842    
  2190.80    0.1638    
  2194.33    0.1466    
  2197.85    0.1319    
  2201.38    0.1194    
  2204.90    0.1085    
  2208.43    0.9912E-01
  2211.95    0.9089E-01
  2215.48    0.8366E-01
  2219.00    0.7728E-01
  2222.53    0.7160E-01
  2226.05    0.6649E-01
  2229.58    0.6187E-01
  2233.10    0.5771E-01
  2236.63    0.5396E-01
  2240.15    0.5057E-01
  2243.68    0.4749E-01
  2247.20    0.4469E-01
  2250.73    0.4213E-01
  2254.25    0.3979E-01
  2257.78    0.3764E-01
  2261.30    0.3565E-01
  2264.83    0.3383E-01
  2268.35    0.3214E-01
  2271.88    0.3057E-01
  2275.40    0.2911E-01
  2278.93    0.2776E-01
  2282.45    0.2650E-01
  2285.98    0.2533E-01
  2289.50    0.2423E-01
  2293.03    0.2320E-01
  2296.55    0.2223E-01
  2300.08    0.2133E-01
  2303.60    0.2048E-01
  2307.13    0.1968E-01
  2310.65    0.1892E-01
  2314.18    0.1821E-01
  2317.70    0.1754E-01
  2321.23    0.1690E-01
  2324.75    0.1630E-01
  2328.28    0.1573E-01
  2331.80    0.1519E-01
  2335.33    0.1468E-01
  2338.85    0.1419E-01
  2342.38    0.1373E-01
  2345.90    0.1329E-01
  2349.43    0.1287E-01
  2352.95    0.1247E-01
  2356.48    0.1209E-01
  2360.00    0.1172E-01
  2363.53    0.1137E-01
  2367.05    0.1104E-01
  2370.58    0.1072E-01
  2374.10    0.1042E-01
  2377.63    0.1013E-01
  2381.15    0.9847E-02
  2384.68    0.9579E-02
  2388.20    0.9322E-02
  2391.73    0.9075E-02
  2395.25    0.8837E-02
  2398.78    0.8609E-02
  2402.30    0.8390E-02
  2405.83    0.8179E-02
  2409.35    0.7976E-02
  2412.88    0.7780E-02
  2416.40    0.7592E-02
  2419.93    0.7410E-02
  2423.45    0.7235E-02
  2426.98    0.7066E-02
  2430.50    0.6903E-02
  2434.03    0.6746E-02
  2437.55    0.6594E-02
  2441.08    0.6447E-02
  2444.60    0.6304E-02
  2448.13    0.6167E-02
  2451.65    0.6034E-02
  2455.18    0.5905E-02
  2458.70    0.5781E-02
  2462.23    0.5660E-02
  2465.75    0.5543E-02
  2469.28    0.5430E-02
  2472.80    0.5320E-02
  2476.33    0.5213E-02
  2479.85    0.5110E-02
  2483.38    0.5010E-02
  2486.90    0.4912E-02
  2490.43    0.4818E-02
  2493.95    0.4726E-02
  2497.48    0.4637E-02
  2501.00    0.4550E-02
  2504.53    0.4466E-02
  2508.05    0.4384E-02
  2511.58    0.4305E-02
  2515.10    0.4227E-02
  2518.63    0.4152E-02
  2522.15    0.4078E-02
  2525.68    0.4007E-02
  2529.20    0.3937E-02
  2532.73    0.3869E-02
  2536.25    0.3803E-02
  2539.78    0.3739E-02
  2543.30    0.3676E-02
  2546.83    0.3615E-02
  2550.35    0.3556E-02
  2553.88    0.3498E-02
  2557.40    0.3441E-02
  2560.93    0.3386E-02
  2564.45    0.3332E-02
  2567.98    0.3279E-02
  2571.50    0.3227E-02
  2575.03    0.3177E-02
  2578.55    0.3128E-02
  2582.08    0.3080E-02
  2585.60    0.3033E-02
  2589.13    0.2988E-02
  2592.65    0.2943E-02
  2596.18    0.2899E-02
  2599.70    0.2856E-02
  2603.23    0.2815E-02
  2606.75    0.2774E-02
  2610.28    0.2734E-02
  2613.80    0.2695E-02
  2617.33    0.2656E-02
  2620.85    0.2619E-02
  2624.38    0.2582E-02
  2627.90    0.2546E-02
  2631.43    0.2511E-02
  2634.95    0.2477E-02
  2638.48    0.2443E-02
  2642.00    0.2410E-02
  2645.53    0.2378E-02
  2649.05    0.2346E-02
  2652.58    0.2315E-02
  2656.10    0.2285E-02
  2659.63    0.2255E-02
  2663.15    0.2225E-02
  2666.68    0.2197E-02
  2670.20    0.2169E-02
  2673.73    0.2141E-02
  2677.25    0.2114E-02
  2680.78    0.2088E-02
  2684.30    0.2062E-02
  2687.83    0.2036E-02
  2691.35    0.2011E-02
  2694.88    0.1986E-02
  2698.40    0.1962E-02
  2701.93    0.1938E-02
  2705.45    0.1915E-02
  2708.98    0.1892E-02
  2712.50    0.1870E-02
  2716.03    0.1848E-02
  2719.55    0.1826E-02
  2723.08    0.1805E-02
  2726.60    0.1784E-02
  2730.13    0.1764E-02
  2733.65    0.1744E-02
  2737.18    0.1724E-02
  2740.70    0.1704E-02
  2744.23    0.1685E-02
  2747.75    0.1666E-02
  2751.28    0.1648E-02
  2754.80    0.1630E-02
  2758.33    0.1612E-02
  2761.85    0.1594E-02
  2765.38    0.1577E-02
  2768.90    0.1560E-02
  2772.43    0.1543E-02
  2775.95    0.1527E-02
  2779.48    0.1511E-02
  2783.00    0.1495E-02
  2786.53    0.1479E-02
  2790.05    0.1464E-02
  2793.58    0.1449E-02
  2797.10    0.1434E-02
  2800.63    0.1419E-02
  2804.15    0.1404E-02
  2807.68    0.1390E-02
  2811.20    0.1376E-02
  2814.73    0.1362E-02
  2818.25    0.1349E-02
  2821.78    0.1335E-02
  2825.30    0.1322E-02
  2828.83    0.1309E-02
  2832.35    0.1297E-02
  2835.88    0.1284E-02
  2839.40    0.1272E-02
  2842.93    0.1259E-02
  2846.45    0.1247E-02
  2849.98    0.1236E-02
  2853.50    0.1224E-02
  2857.03    0.1212E-02
  2860.55    0.1201E-02
  2864.08    0.1190E-02
  2867.60    0.1179E-02
  2871.13    0.1168E-02
  2874.65    0.1157E-02
  2878.18    0.1147E-02
  2881.70    0.1136E-02
  2885.23    0.1126E-02
  2888.75    0.1116E-02
  2892.28    0.1106E-02
  2895.80    0.1096E-02
  2899.33    0.1087E-02
  2902.85    0.1077E-02
  2906.38    0.1068E-02
  2909.90    0.1058E-02
  2913.43    0.1049E-02
  2916.95    0.1040E-02
  2920.48    0.1031E-02
  2924.00    0.1022E-02
  2927.53    0.1014E-02
  2931.05    0.1005E-02
  2934.58    0.9968E-03
  2938.10    0.9885E-03
  2941.63    0.9803E-03
  2945.15    0.9722E-03
  2948.68    0.9642E-03
  2952.20    0.9563E-03
  2955.73    0.9486E-03
  2959.26    0.9409E-03
  2962.78    0.9333E-03
  2966.31    0.9259E-03
  2969.83    0.9185E-03
  2973.36    0.9112E-03
  2976.88    0.9041E-03
  2980.41    0.8970E-03
  2983.93    0.8900E-03
  2987.46    0.8831E-03
  2990.98    0.8763E-03
  2994.51    0.8696E-03
  2998.03    0.8630E-03
  3001.56    0.8564E-03
  3005.08    0.8500E-03
  3008.61    0.8436E-03
  3012.13    0.8373E-03
  3015.66    0.8311E-03
  3019.18    0.8250E-03
  3022.71    0.8190E-03
  3026.23    0.8130E-03
  3029.76    0.8071E-03
  3033.28    0.8013E-03
  3036.81    0.7956E-03
  3040.33    0.7899E-03
  3043.86    0.7844E-03
  3047.38    0.7789E-03
  3050.91    0.7734E-03
  3054.43    0.7681E-03
  3057.96    0.7628E-03
  3061.48    0.7576E-03
  3065.01    0.7525E-03
  3068.53    0.7474E-03
  3072.06    0.7424E-03
  3075.58    0.7375E-03
  3079.11    0.7326E-03
  3082.63    0.7278E-03
  3086.16    0.7231E-03
  3089.68    0.7185E-03
  3093.21    0.7139E-03
  3096.73    0.7094E-03
  3100.26    0.7049E-03
  3103.78    0.7005E-03
  3107.31    0.6962E-03
  3110.83    0.6920E-03
  3114.36    0.6878E-03
  3117.88    0.6837E-03
  3121.41    0.6796E-03
  3124.93    0.6757E-03
  3128.46    0.6717E-03
  3131.98    0.6679E-03
  3135.51    0.6641E-03
  3139.03    0.6604E-03
  3142.56    0.6568E-03
  3146.08    0.6532E-03
  3149.61    0.6497E-03
  3153.13    0.6463E-03
  3156.66    0.6429E-03
  3160.18    0.6396E-03
  3163.71    0.6364E-03
  3167.23    0.6333E-03
  3170.76    0.6302E-03
  3174.28    0.6272E-03
  3177.81    0.6243E-03
  3181.33    0.6214E-03
  3184.86    0.6187E-03
  3188.38    0.6160E-03
  3191.91    0.6134E-03
  3195.43    0.6109E-03
  3198.96    0.6085E-03
  3202.48    0.6062E-03
  3206.01    0.6040E-03
  3209.53    0.6019E-03
  3213.06    0.5998E-03
  3216.58    0.5979E-03
  3220.11    0.5961E-03
  3223.63    0.5944E-03
  3227.16    0.5929E-03
  3230.68    0.5914E-03
  3234.21    0.5901E-03
  3237.73    0.5889E-03
  3241.26    0.5879E-03
  3244.78    0.5870E-03
  3248.31    0.5863E-03
  3251.83    0.5858E-03
  3255.36    0.5854E-03
  3258.88    0.5852E-03
  3262.41    0.5853E-03
  3265.93    0.5855E-03
  3269.46    0.5860E-03
  3272.98    0.5867E-03
  3276.51    0.5877E-03
  3280.03    0.5891E-03
  3283.56    0.5907E-03
  3287.08    0.5926E-03
  3290.61    0.5950E-03
  3294.13    0.5977E-03
  3297.66    0.6009E-03
  3301.18    0.6046E-03
  3304.71    0.6088E-03
  3308.23    0.6136E-03
  3311.76    0.6190E-03
  3315.28    0.6252E-03
  3318.81    0.6321E-03
  3322.33    0.6400E-03
  3325.86    0.6488E-03
  3329.38    0.6588E-03
  3332.91    0.6701E-03
  3336.43    0.6828E-03
  3339.96    0.6971E-03
  3343.48    0.7133E-03
  3347.01    0.7317E-03
  3350.53    0.7525E-03
  3354.06    0.7763E-03
  3357.58    0.8034E-03
  3361.11    0.8345E-03
  3364.63    0.8703E-03
  3368.16    0.9118E-03
  3371.68    0.9600E-03
  3375.21    0.1017E-02
  3378.73    0.1083E-02
  3382.26    0.1162E-02
  3385.78    0.1257E-02
  3389.31    0.1372E-02
  3392.83    0.1512E-02
  3396.36    0.1686E-02
  3399.88    0.1904E-02
  3403.41    0.2183E-02
  3406.93    0.2547E-02
  3410.46    0.3031E-02
  3413.98    0.3691E-02
  3417.51    0.4616E-02
  3421.03    0.5952E-02
  3424.56    0.7936E-02
  3428.08    0.1093E-01
  3431.61    0.1536E-01
  3435.13    0.2103E-01
  3438.66    0.2558E-01
  3442.18    0.2508E-01
  3445.71    0.2007E-01
  3449.23    0.1453E-01
  3452.76    0.1035E-01
  3456.28    0.7544E-02
  3459.81    0.5680E-02
  3463.33    0.4419E-02
  3466.86    0.3540E-02
  3470.38    0.2909E-02
  3473.91    0.2443E-02
  3477.43    0.2091E-02
  3480.96    0.1819E-02
  3484.48    0.1605E-02
  3488.01    0.1433E-02
  3491.53    0.1293E-02
  3495.06    0.1178E-02
  3498.58    0.1082E-02
  3502.11    0.1001E-02
  3505.63    0.9322E-03
