
 ------------------------------------------------------------
     normal          Raman Scattering Plot
 ------------------------------------------------------------
 Excitation wavelength  514.50 nm
 Convolution lineshape is lorentzian  
 FWHM   20.00  1/cm
 ------------------------------------------------------------
 ------------------------------------------------------------
 # of frequencies :    18
 ------------------------------------------------------------
 #  freq [ 1/cm]  S [Ang**4/amu]
 ------------------------------------------------------------
   1   106.00        0.0056
   2   279.21        1.5984
   3   279.21        1.5937
   4   504.50        0.0000
   5   504.50        0.0000
   6   619.74        7.9201
   7   619.74        7.9108
   8   625.76        2.9212
   9   664.49        0.0005
  10   664.49        0.0018
  11   676.10       22.1893
  12   676.10       22.1855
  13  1193.49        0.0000
  14  2005.84       87.9262
  15  2149.38        0.0005
  16  2236.06      420.3298
  17  3442.27       95.4699
  18  3453.77        0.0012
 ------------------------------------------------------------
    49.47    0.1551E-03
    52.94    0.1595E-03
    56.41    0.1643E-03
    59.88    0.1695E-03
    63.35    0.1754E-03
    66.82    0.1820E-03
    70.29    0.1897E-03
    73.77    0.1987E-03
    77.24    0.2095E-03
    80.71    0.2231E-03
    84.18    0.2406E-03
    87.65    0.2642E-03
    91.12    0.2972E-03
    94.59    0.3444E-03
    98.06    0.4110E-03
   101.54    0.4919E-03
   105.01    0.5513E-03
   108.48    0.5409E-03
   111.95    0.4779E-03
   115.42    0.4134E-03
   118.89    0.3680E-03
   122.36    0.3404E-03
   125.83    0.3249E-03
   129.31    0.3176E-03
   132.78    0.3156E-03
   136.25    0.3174E-03
   139.72    0.3220E-03
   143.19    0.3289E-03
   146.66    0.3375E-03
   150.13    0.3479E-03
   153.60    0.3598E-03
   157.08    0.3733E-03
   160.55    0.3884E-03
   164.02    0.4051E-03
   167.49    0.4236E-03
   170.96    0.4440E-03
   174.43    0.4666E-03
   177.90    0.4916E-03
   181.37    0.5193E-03
   184.85    0.5501E-03
   188.32    0.5843E-03
   191.79    0.6227E-03
   195.26    0.6657E-03
   198.73    0.7141E-03
   202.20    0.7691E-03
   205.67    0.8316E-03
   209.14    0.9033E-03
   212.62    0.9859E-03
   216.09    0.1082E-02
   219.56    0.1194E-02
   223.03    0.1327E-02
   226.50    0.1485E-02
   229.97    0.1676E-02
   233.44    0.1909E-02
   236.91    0.2197E-02
   240.39    0.2559E-02
   243.86    0.3021E-02
   247.33    0.3624E-02
   250.80    0.4427E-02
   254.27    0.5526E-02
   257.74    0.7071E-02
   261.21    0.9308E-02
   264.68    0.1263E-01
   268.16    0.1761E-01
   271.63    0.2478E-01
   275.10    0.3334E-01
   278.57    0.3880E-01
   282.04    0.3609E-01
   285.51    0.2795E-01
   288.98    0.2003E-01
   292.45    0.1427E-01
   295.93    0.1041E-01
   299.40    0.7838E-02
   302.87    0.6078E-02
   306.34    0.4842E-02
   309.81    0.3948E-02
   313.28    0.3286E-02
   316.75    0.2783E-02
   320.22    0.2395E-02
   323.70    0.2088E-02
   327.17    0.1843E-02
   330.64    0.1645E-02
   334.11    0.1482E-02
   337.58    0.1348E-02
   341.05    0.1235E-02
   344.52    0.1141E-02
   347.99    0.1061E-02
   351.47    0.9924E-03
   354.94    0.9342E-03
   358.41    0.8843E-03
   361.88    0.8414E-03
   365.35    0.8044E-03
   368.82    0.7726E-03
   372.29    0.7452E-03
   375.76    0.7217E-03
   379.24    0.7016E-03
   382.71    0.6845E-03
   386.18    0.6701E-03
   389.65    0.6581E-03
   393.12    0.6484E-03
   396.59    0.6406E-03
   400.06    0.6347E-03
   403.53    0.6305E-03
   407.01    0.6278E-03
   410.48    0.6267E-03
   413.95    0.6270E-03
   417.42    0.6287E-03
   420.89    0.6317E-03
   424.36    0.6360E-03
   427.83    0.6415E-03
   431.30    0.6483E-03
   434.78    0.6564E-03
   438.25    0.6656E-03
   441.72    0.6762E-03
   445.19    0.6881E-03
   448.66    0.7012E-03
   452.13    0.7158E-03
   455.60    0.7317E-03
   459.07    0.7492E-03
   462.55    0.7682E-03
   466.02    0.7888E-03
   469.49    0.8112E-03
   472.96    0.8354E-03
   476.43    0.8616E-03
   479.90    0.8899E-03
   483.37    0.9205E-03
   486.84    0.9535E-03
   490.32    0.9893E-03
   493.79    0.1028E-02
   497.26    0.1070E-02
   500.73    0.1115E-02
   504.20    0.1164E-02
   507.67    0.1218E-02
   511.14    0.1276E-02
   514.61    0.1339E-02
   518.09    0.1408E-02
   521.56    0.1484E-02
   525.03    0.1568E-02
   528.50    0.1659E-02
   531.97    0.1761E-02
   535.44    0.1873E-02
   538.91    0.1998E-02
   542.38    0.2138E-02
   545.86    0.2295E-02
   549.33    0.2473E-02
   552.80    0.2674E-02
   556.27    0.2904E-02
   559.74    0.3169E-02
   563.21    0.3476E-02
   566.68    0.3835E-02
   570.15    0.4259E-02
   573.62    0.4766E-02
   577.10    0.5380E-02
   580.57    0.6133E-02
   584.04    0.7075E-02
   587.51    0.8274E-02
   590.98    0.9835E-02
   594.45    0.1192E-01
   597.92    0.1478E-01
   601.39    0.1884E-01
   604.87    0.2475E-01
   608.34    0.3351E-01
   611.81    0.4615E-01
   615.28    0.6195E-01
   618.75    0.7447E-01
   622.22    0.7452E-01
   625.69    0.6374E-01
   629.16    0.5034E-01
   632.64    0.3927E-01
   636.11    0.3187E-01
   639.58    0.2765E-01
   643.05    0.2585E-01
   646.52    0.2600E-01
   649.99    0.2800E-01
   653.46    0.3211E-01
   656.93    0.3898E-01
   660.41    0.4990E-01
   663.88    0.6688E-01
   667.35    0.9234E-01
   670.82    0.1258    
   674.29    0.1548    
   677.76    0.1553    
   681.23    0.1265    
   684.70    0.9218E-01
   688.18    0.6562E-01
   691.65    0.4751E-01
   695.12    0.3542E-01
   698.59    0.2721E-01
   702.06    0.2146E-01
   705.53    0.1733E-01
   709.00    0.1428E-01
   712.47    0.1196E-01
   715.95    0.1017E-01
   719.42    0.8749E-02
   722.89    0.7612E-02
   726.36    0.6685E-02
   729.83    0.5920E-02
   733.30    0.5282E-02
   736.77    0.4743E-02
   740.24    0.4284E-02
   743.72    0.3890E-02
   747.19    0.3549E-02
   750.66    0.3252E-02
   754.13    0.2992E-02
   757.60    0.2762E-02
   761.07    0.2559E-02
   764.54    0.2378E-02
   768.01    0.2216E-02
   771.49    0.2070E-02
   774.96    0.1939E-02
   778.43    0.1820E-02
   781.90    0.1712E-02
   785.37    0.1614E-02
   788.84    0.1524E-02
   792.31    0.1442E-02
   795.78    0.1366E-02
   799.26    0.1297E-02
   802.73    0.1233E-02
   806.20    0.1173E-02
   809.67    0.1118E-02
   813.14    0.1067E-02
   816.61    0.1020E-02
   820.08    0.9754E-03
   823.55    0.9340E-03
   827.03    0.8954E-03
   830.50    0.8592E-03
   833.97    0.8253E-03
   837.44    0.7934E-03
   840.91    0.7635E-03
   844.38    0.7353E-03
   847.85    0.7087E-03
   851.32    0.6836E-03
   854.80    0.6599E-03
   858.27    0.6375E-03
   861.74    0.6163E-03
   865.21    0.5962E-03
   868.68    0.5771E-03
   872.15    0.5590E-03
   875.62    0.5418E-03
   879.09    0.5254E-03
   882.57    0.5099E-03
   886.04    0.4950E-03
   889.51    0.4809E-03
   892.98    0.4674E-03
   896.45    0.4545E-03
   899.92    0.4422E-03
   903.39    0.4304E-03
   906.86    0.4191E-03
   910.34    0.4083E-03
   913.81    0.3980E-03
   917.28    0.3881E-03
   920.75    0.3786E-03
   924.22    0.3695E-03
   927.69    0.3608E-03
   931.16    0.3524E-03
   934.63    0.3443E-03
   938.11    0.3365E-03
   941.58    0.3291E-03
   945.05    0.3219E-03
   948.52    0.3150E-03
   951.99    0.3083E-03
   955.46    0.3019E-03
   958.93    0.2957E-03
   962.40    0.2897E-03
   965.88    0.2839E-03
   969.35    0.2784E-03
   972.82    0.2730E-03
   976.29    0.2678E-03
   979.76    0.2628E-03
   983.23    0.2580E-03
   986.70    0.2533E-03
   990.17    0.2488E-03
   993.65    0.2444E-03
   997.12    0.2402E-03
  1000.59    0.2361E-03
  1004.06    0.2321E-03
  1007.53    0.2283E-03
  1011.00    0.2245E-03
  1014.47    0.2209E-03
  1017.94    0.2174E-03
  1021.42    0.2140E-03
  1024.89    0.2108E-03
  1028.36    0.2076E-03
  1031.83    0.2045E-03
  1035.30    0.2015E-03
  1038.77    0.1986E-03
  1042.24    0.1957E-03
  1045.71    0.1930E-03
  1049.19    0.1903E-03
  1052.66    0.1878E-03
  1056.13    0.1852E-03
  1059.60    0.1828E-03
  1063.07    0.1804E-03
  1066.54    0.1781E-03
  1070.01    0.1759E-03
  1073.48    0.1737E-03
  1076.96    0.1716E-03
  1080.43    0.1696E-03
  1083.90    0.1676E-03
  1087.37    0.1656E-03
  1090.84    0.1637E-03
  1094.31    0.1619E-03
  1097.78    0.1601E-03
  1101.25    0.1584E-03
  1104.73    0.1567E-03
  1108.20    0.1550E-03
  1111.67    0.1534E-03
  1115.14    0.1519E-03
  1118.61    0.1504E-03
  1122.08    0.1489E-03
  1125.55    0.1475E-03
  1129.02    0.1461E-03
  1132.50    0.1447E-03
  1135.97    0.1434E-03
  1139.44    0.1421E-03
  1142.91    0.1409E-03
  1146.38    0.1397E-03
  1149.85    0.1385E-03
  1153.32    0.1373E-03
  1156.79    0.1362E-03
  1160.26    0.1351E-03
  1163.74    0.1341E-03
  1167.21    0.1330E-03
  1170.68    0.1321E-03
  1174.15    0.1311E-03
  1177.62    0.1301E-03
  1181.09    0.1292E-03
  1184.56    0.1284E-03
  1188.03    0.1275E-03
  1191.51    0.1267E-03
  1194.98    0.1259E-03
  1198.45    0.1251E-03
  1201.92    0.1243E-03
  1205.39    0.1235E-03
  1208.86    0.1228E-03
  1212.33    0.1221E-03
  1215.80    0.1215E-03
  1219.28    0.1208E-03
  1222.75    0.1202E-03
  1226.22    0.1196E-03
  1229.69    0.1190E-03
  1233.16    0.1184E-03
  1236.63    0.1178E-03
  1240.10    0.1173E-03
  1243.57    0.1168E-03
  1247.05    0.1163E-03
  1250.52    0.1158E-03
  1253.99    0.1154E-03
  1257.46    0.1149E-03
  1260.93    0.1145E-03
  1264.40    0.1141E-03
  1267.87    0.1137E-03
  1271.34    0.1134E-03
  1274.82    0.1130E-03
  1278.29    0.1127E-03
  1281.76    0.1123E-03
  1285.23    0.1120E-03
  1288.70    0.1117E-03
  1292.17    0.1115E-03
  1295.64    0.1112E-03
  1299.11    0.1110E-03
  1302.59    0.1108E-03
  1306.06    0.1105E-03
  1309.53    0.1103E-03
  1313.00    0.1102E-03
  1316.47    0.1100E-03
  1319.94    0.1099E-03
  1323.41    0.1097E-03
  1326.88    0.1096E-03
  1330.36    0.1095E-03
  1333.83    0.1094E-03
  1337.30    0.1093E-03
  1340.77    0.1093E-03
  1344.24    0.1092E-03
  1347.71    0.1092E-03
  1351.18    0.1091E-03
  1354.65    0.1091E-03
  1358.13    0.1092E-03
  1361.60    0.1092E-03
  1365.07    0.1092E-03
  1368.54    0.1093E-03
  1372.01    0.1093E-03
  1375.48    0.1094E-03
  1378.95    0.1095E-03
  1382.42    0.1096E-03
  1385.90    0.1097E-03
  1389.37    0.1099E-03
  1392.84    0.1100E-03
  1396.31    0.1102E-03
  1399.78    0.1103E-03
  1403.25    0.1105E-03
  1406.72    0.1107E-03
  1410.19    0.1110E-03
  1413.67    0.1112E-03
  1417.14    0.1114E-03
  1420.61    0.1117E-03
  1424.08    0.1120E-03
  1427.55    0.1123E-03
  1431.02    0.1126E-03
  1434.49    0.1129E-03
  1437.96    0.1132E-03
  1441.44    0.1136E-03
  1444.91    0.1140E-03
  1448.38    0.1144E-03
  1451.85    0.1148E-03
  1455.32    0.1152E-03
  1458.79    0.1156E-03
  1462.26    0.1161E-03
  1465.73    0.1165E-03
  1469.21    0.1170E-03
  1472.68    0.1175E-03
  1476.15    0.1180E-03
  1479.62    0.1186E-03
  1483.09    0.1191E-03
  1486.56    0.1197E-03
  1490.03    0.1203E-03
  1493.50    0.1209E-03
  1496.98    0.1215E-03
  1500.45    0.1222E-03
  1503.92    0.1228E-03
  1507.39    0.1235E-03
  1510.86    0.1242E-03
  1514.33    0.1249E-03
  1517.80    0.1257E-03
  1521.27    0.1265E-03
  1524.75    0.1272E-03
  1528.22    0.1281E-03
  1531.69    0.1289E-03
  1535.16    0.1297E-03
  1538.63    0.1306E-03
  1542.10    0.1315E-03
  1545.57    0.1324E-03
  1549.04    0.1334E-03
  1552.52    0.1344E-03
  1555.99    0.1354E-03
  1559.46    0.1364E-03
  1562.93    0.1375E-03
  1566.40    0.1385E-03
  1569.87    0.1397E-03
  1573.34    0.1408E-03
  1576.81    0.1420E-03
  1580.29    0.1432E-03
  1583.76    0.1444E-03
  1587.23    0.1457E-03
  1590.70    0.1469E-03
  1594.17    0.1483E-03
  1597.64    0.1496E-03
  1601.11    0.1510E-03
  1604.58    0.1525E-03
  1608.06    0.1539E-03
  1611.53    0.1554E-03
  1615.00    0.1570E-03
  1618.47    0.1586E-03
  1621.94    0.1602E-03
  1625.41    0.1619E-03
  1628.88    0.1636E-03
  1632.35    0.1654E-03
  1635.83    0.1672E-03
  1639.30    0.1690E-03
  1642.77    0.1709E-03
  1646.24    0.1729E-03
  1649.71    0.1749E-03
  1653.18    0.1769E-03
  1656.65    0.1791E-03
  1660.12    0.1812E-03
  1663.60    0.1835E-03
  1667.07    0.1858E-03
  1670.54    0.1881E-03
  1674.01    0.1906E-03
  1677.48    0.1931E-03
  1680.95    0.1956E-03
  1684.42    0.1983E-03
  1687.89    0.2010E-03
  1691.37    0.2038E-03
  1694.84    0.2067E-03
  1698.31    0.2096E-03
  1701.78    0.2127E-03
  1705.25    0.2158E-03
  1708.72    0.2191E-03
  1712.19    0.2224E-03
  1715.66    0.2258E-03
  1719.14    0.2294E-03
  1722.61    0.2331E-03
  1726.08    0.2368E-03
  1729.55    0.2407E-03
  1733.02    0.2448E-03
  1736.49    0.2489E-03
  1739.96    0.2532E-03
  1743.43    0.2577E-03
  1746.91    0.2623E-03
  1750.38    0.2671E-03
  1753.85    0.2720E-03
  1757.32    0.2771E-03
  1760.79    0.2824E-03
  1764.26    0.2879E-03
  1767.73    0.2936E-03
  1771.20    0.2995E-03
  1774.67    0.3056E-03
  1778.15    0.3120E-03
  1781.62    0.3186E-03
  1785.09    0.3255E-03
  1788.56    0.3327E-03
  1792.03    0.3401E-03
  1795.50    0.3479E-03
  1798.97    0.3561E-03
  1802.44    0.3645E-03
  1805.92    0.3734E-03
  1809.39    0.3827E-03
  1812.86    0.3924E-03
  1816.33    0.4025E-03
  1819.80    0.4132E-03
  1823.27    0.4243E-03
  1826.74    0.4360E-03
  1830.21    0.4484E-03
  1833.69    0.4614E-03
  1837.16    0.4750E-03
  1840.63    0.4895E-03
  1844.10    0.5047E-03
  1847.57    0.5208E-03
  1851.04    0.5379E-03
  1854.51    0.5560E-03
  1857.98    0.5752E-03
  1861.46    0.5957E-03
  1864.93    0.6175E-03
  1868.40    0.6408E-03
  1871.87    0.6657E-03
  1875.34    0.6924E-03
  1878.81    0.7211E-03
  1882.28    0.7519E-03
  1885.75    0.7852E-03
  1889.23    0.8212E-03
  1892.70    0.8602E-03
  1896.17    0.9026E-03
  1899.64    0.9489E-03
  1903.11    0.9994E-03
  1906.58    0.1055E-02
  1910.05    0.1116E-02
  1913.52    0.1184E-02
  1917.00    0.1259E-02
  1920.47    0.1342E-02
  1923.94    0.1436E-02
  1927.41    0.1541E-02
  1930.88    0.1660E-02
  1934.35    0.1796E-02
  1937.82    0.1952E-02
  1941.29    0.2132E-02
  1944.77    0.2341E-02
  1948.24    0.2586E-02
  1951.71    0.2877E-02
  1955.18    0.3224E-02
  1958.65    0.3646E-02
  1962.12    0.4163E-02
  1965.59    0.4807E-02
  1969.06    0.5623E-02
  1972.54    0.6677E-02
  1976.01    0.8065E-02
  1979.48    0.9942E-02
  1982.95    0.1255E-01
  1986.42    0.1627E-01
  1989.89    0.2175E-01
  1993.36    0.2996E-01
  1996.83    0.4209E-01
  2000.31    0.5815E-01
  2003.78    0.7272E-01
  2007.25    0.7434E-01
  2010.72    0.6135E-01
  2014.19    0.4493E-01
  2017.66    0.3202E-01
  2021.13    0.2320E-01
  2024.60    0.1733E-01
  2028.08    0.1337E-01
  2031.55    0.1063E-01
  2035.02    0.8674E-02
  2038.49    0.7246E-02
  2041.96    0.6178E-02
  2045.43    0.5364E-02
  2048.90    0.4733E-02
  2052.37    0.4238E-02
  2055.85    0.3845E-02
  2059.32    0.3531E-02
  2062.79    0.3279E-02
  2066.26    0.3077E-02
  2069.73    0.2914E-02
  2073.20    0.2785E-02
  2076.67    0.2683E-02
  2080.14    0.2605E-02
  2083.62    0.2548E-02
  2087.09    0.2508E-02
  2090.56    0.2485E-02
  2094.03    0.2477E-02
  2097.50    0.2483E-02
  2100.97    0.2503E-02
  2104.44    0.2535E-02
  2107.91    0.2580E-02
  2111.39    0.2638E-02
  2114.86    0.2709E-02
  2118.33    0.2794E-02
  2121.80    0.2893E-02
  2125.27    0.3008E-02
  2128.74    0.3141E-02
  2132.21    0.3291E-02
  2135.68    0.3462E-02
  2139.16    0.3656E-02
  2142.63    0.3877E-02
  2146.10    0.4126E-02
  2149.57    0.4410E-02
  2153.04    0.4732E-02
  2156.51    0.5100E-02
  2159.98    0.5522E-02
  2163.45    0.6007E-02
  2166.93    0.6568E-02
  2170.40    0.7221E-02
  2173.87    0.7984E-02
  2177.34    0.8885E-02
  2180.81    0.9957E-02
  2184.28    0.1124E-01
  2187.75    0.1280E-01
  2191.22    0.1472E-01
  2194.70    0.1711E-01
  2198.17    0.2012E-01
  2201.64    0.2400E-01
  2205.11    0.2910E-01
  2208.58    0.3595E-01
  2212.05    0.4538E-01
  2215.52    0.5877E-01
  2218.99    0.7831E-01
  2222.47    0.1075    
  2225.94    0.1511    
  2229.41    0.2121    
  2232.88    0.2778    
  2236.35    0.3057    
  2239.82    0.2681    
  2243.29    0.2010    
  2246.76    0.1427    
  2250.24    0.1018    
  2253.71    0.7449E-01
  2257.18    0.5616E-01
  2260.65    0.4354E-01
  2264.12    0.3459E-01
  2267.59    0.2807E-01
  2271.06    0.2320E-01
  2274.53    0.1947E-01
  2278.01    0.1656E-01
  2281.48    0.1425E-01
  2284.95    0.1239E-01
  2288.42    0.1087E-01
  2291.89    0.9611E-02
  2295.36    0.8558E-02
  2298.83    0.7669E-02
  2302.30    0.6911E-02
  2305.78    0.6261E-02
  2309.25    0.5699E-02
  2312.72    0.5209E-02
  2316.19    0.4780E-02
  2319.66    0.4402E-02
  2323.13    0.4068E-02
  2326.60    0.3770E-02
  2330.07    0.3505E-02
  2333.55    0.3266E-02
  2337.02    0.3052E-02
  2340.49    0.2858E-02
  2343.96    0.2682E-02
  2347.43    0.2522E-02
  2350.90    0.2376E-02
  2354.37    0.2243E-02
  2357.84    0.2121E-02
  2361.31    0.2008E-02
  2364.79    0.1905E-02
  2368.26    0.1809E-02
  2371.73    0.1720E-02
  2375.20    0.1638E-02
  2378.67    0.1562E-02
  2382.14    0.1491E-02
  2385.61    0.1425E-02
  2389.08    0.1363E-02
  2392.56    0.1305E-02
  2396.03    0.1251E-02
  2399.50    0.1201E-02
  2402.97    0.1153E-02
  2406.44    0.1108E-02
  2409.91    0.1066E-02
  2413.38    0.1026E-02
  2416.85    0.9887E-03
  2420.33    0.9533E-03
  2423.80    0.9197E-03
  2427.27    0.8880E-03
  2430.74    0.8579E-03
  2434.21    0.8293E-03
  2437.68    0.8022E-03
  2441.15    0.7764E-03
  2444.62    0.7519E-03
  2448.10    0.7286E-03
  2451.57    0.7063E-03
  2455.04    0.6851E-03
  2458.51    0.6649E-03
  2461.98    0.6455E-03
  2465.45    0.6271E-03
  2468.92    0.6094E-03
  2472.39    0.5925E-03
  2475.87    0.5763E-03
  2479.34    0.5608E-03
  2482.81    0.5459E-03
  2486.28    0.5316E-03
  2489.75    0.5179E-03
  2493.22    0.5048E-03
  2496.69    0.4921E-03
  2500.16    0.4800E-03
  2503.64    0.4683E-03
  2507.11    0.4570E-03
  2510.58    0.4462E-03
  2514.05    0.4357E-03
  2517.52    0.4257E-03
  2520.99    0.4160E-03
  2524.46    0.4066E-03
  2527.93    0.3975E-03
  2531.41    0.3888E-03
  2534.88    0.3804E-03
  2538.35    0.3722E-03
  2541.82    0.3644E-03
  2545.29    0.3567E-03
  2548.76    0.3494E-03
  2552.23    0.3422E-03
  2555.70    0.3353E-03
  2559.18    0.3287E-03
  2562.65    0.3222E-03
  2566.12    0.3159E-03
  2569.59    0.3098E-03
  2573.06    0.3039E-03
  2576.53    0.2982E-03
  2580.00    0.2926E-03
  2583.47    0.2872E-03
  2586.95    0.2820E-03
  2590.42    0.2769E-03
  2593.89    0.2720E-03
  2597.36    0.2672E-03
  2600.83    0.2625E-03
  2604.30    0.2580E-03
  2607.77    0.2536E-03
  2611.24    0.2493E-03
  2614.72    0.2451E-03
  2618.19    0.2410E-03
  2621.66    0.2371E-03
  2625.13    0.2332E-03
  2628.60    0.2295E-03
  2632.07    0.2258E-03
  2635.54    0.2223E-03
  2639.01    0.2188E-03
  2642.49    0.2154E-03
  2645.96    0.2121E-03
  2649.43    0.2089E-03
  2652.90    0.2058E-03
  2656.37    0.2027E-03
  2659.84    0.1997E-03
  2663.31    0.1968E-03
  2666.78    0.1940E-03
  2670.26    0.1912E-03
  2673.73    0.1885E-03
  2677.20    0.1859E-03
  2680.67    0.1833E-03
  2684.14    0.1808E-03
  2687.61    0.1783E-03
  2691.08    0.1759E-03
  2694.55    0.1735E-03
  2698.03    0.1712E-03
  2701.50    0.1690E-03
  2704.97    0.1668E-03
  2708.44    0.1646E-03
  2711.91    0.1625E-03
  2715.38    0.1605E-03
  2718.85    0.1585E-03
  2722.32    0.1565E-03
  2725.80    0.1546E-03
  2729.27    0.1527E-03
  2732.74    0.1509E-03
  2736.21    0.1491E-03
  2739.68    0.1473E-03
  2743.15    0.1456E-03
  2746.62    0.1439E-03
  2750.09    0.1422E-03
  2753.57    0.1406E-03
  2757.04    0.1390E-03
  2760.51    0.1375E-03
  2763.98    0.1359E-03
  2767.45    0.1345E-03
  2770.92    0.1330E-03
  2774.39    0.1316E-03
  2777.86    0.1302E-03
  2781.34    0.1288E-03
  2784.81    0.1275E-03
  2788.28    0.1261E-03
  2791.75    0.1248E-03
  2795.22    0.1236E-03
  2798.69    0.1223E-03
  2802.16    0.1211E-03
  2805.63    0.1199E-03
  2809.11    0.1188E-03
  2812.58    0.1176E-03
  2816.05    0.1165E-03
  2819.52    0.1154E-03
  2822.99    0.1143E-03
  2826.46    0.1133E-03
  2829.93    0.1123E-03
  2833.40    0.1112E-03
  2836.88    0.1103E-03
  2840.35    0.1093E-03
  2843.82    0.1083E-03
  2847.29    0.1074E-03
  2850.76    0.1065E-03
  2854.23    0.1056E-03
  2857.70    0.1047E-03
  2861.17    0.1039E-03
  2864.65    0.1030E-03
  2868.12    0.1022E-03
  2871.59    0.1014E-03
  2875.06    0.1006E-03
  2878.53    0.9982E-04
  2882.00    0.9907E-04
  2885.47    0.9833E-04
  2888.94    0.9760E-04
  2892.42    0.9690E-04
  2895.89    0.9620E-04
  2899.36    0.9553E-04
  2902.83    0.9486E-04
  2906.30    0.9422E-04
  2909.77    0.9358E-04
  2913.24    0.9297E-04
  2916.71    0.9236E-04
  2920.19    0.9177E-04
  2923.66    0.9120E-04
  2927.13    0.9064E-04
  2930.60    0.9009E-04
  2934.07    0.8956E-04
  2937.54    0.8904E-04
  2941.01    0.8853E-04
  2944.48    0.8804E-04
  2947.95    0.8756E-04
  2951.43    0.8710E-04
  2954.90    0.8665E-04
  2958.37    0.8621E-04
  2961.84    0.8578E-04
  2965.31    0.8537E-04
  2968.78    0.8497E-04
  2972.25    0.8459E-04
  2975.72    0.8421E-04
  2979.20    0.8386E-04
  2982.67    0.8351E-04
  2986.14    0.8318E-04
  2989.61    0.8286E-04
  2993.08    0.8255E-04
  2996.55    0.8226E-04
  3000.02    0.8198E-04
  3003.49    0.8171E-04
  3006.97    0.8146E-04
  3010.44    0.8122E-04
  3013.91    0.8100E-04
  3017.38    0.8079E-04
  3020.85    0.8059E-04
  3024.32    0.8041E-04
  3027.79    0.8024E-04
  3031.26    0.8008E-04
  3034.74    0.7995E-04
  3038.21    0.7982E-04
  3041.68    0.7971E-04
  3045.15    0.7962E-04
  3048.62    0.7954E-04
  3052.09    0.7947E-04
  3055.56    0.7943E-04
  3059.03    0.7940E-04
  3062.51    0.7938E-04
  3065.98    0.7938E-04
  3069.45    0.7940E-04
  3072.92    0.7944E-04
  3076.39    0.7950E-04
  3079.86    0.7957E-04
  3083.33    0.7966E-04
  3086.80    0.7977E-04
  3090.28    0.7991E-04
  3093.75    0.8006E-04
  3097.22    0.8023E-04
  3100.69    0.8043E-04
  3104.16    0.8065E-04
  3107.63    0.8089E-04
  3111.10    0.8115E-04
  3114.57    0.8144E-04
  3118.05    0.8175E-04
  3121.52    0.8209E-04
  3124.99    0.8246E-04
  3128.46    0.8285E-04
  3131.93    0.8328E-04
  3135.40    0.8373E-04
  3138.87    0.8421E-04
  3142.34    0.8473E-04
  3145.82    0.8528E-04
  3149.29    0.8587E-04
  3152.76    0.8649E-04
  3156.23    0.8715E-04
  3159.70    0.8785E-04
  3163.17    0.8859E-04
  3166.64    0.8938E-04
  3170.11    0.9021E-04
  3173.59    0.9108E-04
  3177.06    0.9201E-04
  3180.53    0.9299E-04
  3184.00    0.9403E-04
  3187.47    0.9512E-04
  3190.94    0.9627E-04
  3194.41    0.9749E-04
  3197.88    0.9877E-04
  3201.36    0.1001E-03
  3204.83    0.1016E-03
  3208.30    0.1031E-03
  3211.77    0.1047E-03
  3215.24    0.1063E-03
  3218.71    0.1081E-03
  3222.18    0.1100E-03
  3225.65    0.1120E-03
  3229.13    0.1141E-03
  3232.60    0.1163E-03
  3236.07    0.1186E-03
  3239.54    0.1211E-03
  3243.01    0.1237E-03
  3246.48    0.1265E-03
  3249.95    0.1294E-03
  3253.42    0.1326E-03
  3256.90    0.1359E-03
  3260.37    0.1394E-03
  3263.84    0.1432E-03
  3267.31    0.1471E-03
  3270.78    0.1514E-03
  3274.25    0.1559E-03
  3277.72    0.1608E-03
  3281.19    0.1659E-03
  3284.67    0.1714E-03
  3288.14    0.1774E-03
  3291.61    0.1837E-03
  3295.08    0.1905E-03
  3298.55    0.1978E-03
  3302.02    0.2057E-03
  3305.49    0.2142E-03
  3308.96    0.2235E-03
  3312.44    0.2334E-03
  3315.91    0.2442E-03
  3319.38    0.2560E-03
  3322.85    0.2688E-03
  3326.32    0.2827E-03
  3329.79    0.2980E-03
  3333.26    0.3148E-03
  3336.73    0.3333E-03
  3340.21    0.3536E-03
  3343.68    0.3762E-03
  3347.15    0.4012E-03
  3350.62    0.4292E-03
  3354.09    0.4604E-03
  3357.56    0.4956E-03
  3361.03    0.5353E-03
  3364.50    0.5803E-03
  3367.98    0.6316E-03
  3371.45    0.6906E-03
  3374.92    0.7586E-03
  3378.39    0.8377E-03
  3381.86    0.9303E-03
  3385.33    0.1040E-02
  3388.80    0.1170E-02
  3392.27    0.1328E-02
  3395.75    0.1519E-02
  3399.22    0.1756E-02
  3402.69    0.2053E-02
  3406.16    0.2432E-02
  3409.63    0.2923E-02
  3413.10    0.3576E-02
  3416.57    0.4464E-02
  3420.04    0.5706E-02
  3423.52    0.7493E-02
  3426.99    0.1014E-01
  3430.46    0.1410E-01
  3433.93    0.1991E-01
  3437.40    0.2728E-01
  3440.87    0.3311E-01
  3444.34    0.3237E-01
  3447.81    0.2584E-01
  3451.29    0.1864E-01
  3454.76    0.1321E-01
  3458.23    0.9542E-02
  3461.70    0.7094E-02
  3465.17    0.5431E-02
  3468.64    0.4269E-02
  3472.11    0.3433E-02
  3475.58    0.2816E-02
  3479.06    0.2348E-02
  3482.53    0.1987E-02
  3486.00    0.1703E-02
  3489.47    0.1476E-02
  3492.94    0.1291E-02
  3496.41    0.1139E-02
  3499.88    0.1012E-02
  3503.35    0.9062E-03
  3506.83    0.8161E-03
  3510.30    0.7390E-03
  3513.77    0.6725E-03
  3517.24    0.6149E-03
