
 ------------------------------------------------------------
     normal          Raman Scattering Plot
 ------------------------------------------------------------
 Excitation wavelength  514.50 nm
 Convolution lineshape is lorentzian  
 FWHM   20.00  1/cm
 ------------------------------------------------------------
 ------------------------------------------------------------
 # of frequencies :     6
 ------------------------------------------------------------
 #  freq [ 1/cm]  S [Ang**4/amu]
 ------------------------------------------------------------
   1   712.94        0.4714
   2   772.28        0.0000
   3   772.28        0.0000
   4  1952.12       12.2157
   5  3405.49        0.0000
   6  3515.93       68.8052
 ------------------------------------------------------------
   655.87    0.4744E-04
   658.79    0.5243E-04
   661.72    0.5827E-04
   664.64    0.6513E-04
   667.57    0.7329E-04
   670.50    0.8307E-04
   673.42    0.9492E-04
   676.35    0.1095E-03
   679.27    0.1276E-03
   682.20    0.1504E-03
   685.13    0.1797E-03
   688.05    0.2180E-03
   690.98    0.2691E-03
   693.90    0.3387E-03
   696.83    0.4352E-03
   699.76    0.5712E-03
   702.68    0.7617E-03
   705.61    0.1016E-02
   708.53    0.1308E-02
   711.46    0.1529E-02
   714.39    0.1531E-02
   717.31    0.1312E-02
   720.24    0.1020E-02
   723.16    0.7646E-03
   726.09    0.5733E-03
   729.01    0.4367E-03
   731.94    0.3397E-03
   734.87    0.2699E-03
   737.79    0.2186E-03
   740.72    0.1802E-03
   743.64    0.1508E-03
   746.57    0.1279E-03
   749.50    0.1098E-03
   752.42    0.9519E-04
   755.35    0.8332E-04
   758.27    0.7352E-04
   761.20    0.6536E-04
   764.13    0.5849E-04
   767.05    0.5265E-04
   769.98    0.4765E-04
   772.90    0.4334E-04
   775.83    0.3960E-04
   778.76    0.3634E-04
   781.68    0.3347E-04
   784.61    0.3093E-04
   787.53    0.2868E-04
   790.46    0.2668E-04
   793.38    0.2489E-04
   796.31    0.2328E-04
   799.24    0.2182E-04
   802.16    0.2051E-04
   805.09    0.1932E-04
   808.01    0.1823E-04
   810.94    0.1724E-04
   813.87    0.1634E-04
   816.79    0.1551E-04
   819.72    0.1475E-04
   822.64    0.1404E-04
   825.57    0.1339E-04
   828.50    0.1279E-04
   831.42    0.1223E-04
   834.35    0.1172E-04
   837.27    0.1124E-04
   840.20    0.1079E-04
   843.13    0.1037E-04
   846.05    0.9979E-05
   848.98    0.9614E-05
   851.90    0.9271E-05
   854.83    0.8950E-05
   857.75    0.8649E-05
   860.68    0.8365E-05
   863.61    0.8098E-05
   866.53    0.7846E-05
   869.46    0.7609E-05
   872.38    0.7385E-05
   875.31    0.7173E-05
   878.24    0.6972E-05
   881.16    0.6783E-05
   884.09    0.6603E-05
   887.01    0.6432E-05
   889.94    0.6270E-05
   892.87    0.6117E-05
   895.79    0.5971E-05
   898.72    0.5832E-05
   901.64    0.5699E-05
   904.57    0.5574E-05
   907.50    0.5454E-05
   910.42    0.5339E-05
   913.35    0.5230E-05
   916.27    0.5126E-05
   919.20    0.5027E-05
   922.12    0.4932E-05
   925.05    0.4841E-05
   927.98    0.4755E-05
   930.90    0.4672E-05
   933.83    0.4592E-05
   936.75    0.4516E-05
   939.68    0.4444E-05
   942.61    0.4374E-05
   945.53    0.4307E-05
   948.46    0.4243E-05
   951.38    0.4182E-05
   954.31    0.4123E-05
   957.24    0.4067E-05
   960.16    0.4013E-05
   963.09    0.3961E-05
   966.01    0.3911E-05
   968.94    0.3863E-05
   971.87    0.3818E-05
   974.79    0.3774E-05
   977.72    0.3731E-05
   980.64    0.3691E-05
   983.57    0.3652E-05
   986.50    0.3615E-05
   989.42    0.3579E-05
   992.35    0.3544E-05
   995.27    0.3511E-05
   998.20    0.3479E-05
  1001.12    0.3449E-05
  1004.05    0.3420E-05
  1006.98    0.3392E-05
  1009.90    0.3365E-05
  1012.83    0.3339E-05
  1015.75    0.3314E-05
  1018.68    0.3291E-05
  1021.61    0.3268E-05
  1024.53    0.3246E-05
  1027.46    0.3225E-05
  1030.38    0.3205E-05
  1033.31    0.3186E-05
  1036.24    0.3168E-05
  1039.16    0.3151E-05
  1042.09    0.3134E-05
  1045.01    0.3118E-05
  1047.94    0.3103E-05
  1050.87    0.3089E-05
  1053.79    0.3075E-05
  1056.72    0.3062E-05
  1059.64    0.3050E-05
  1062.57    0.3038E-05
  1065.49    0.3027E-05
  1068.42    0.3016E-05
  1071.35    0.3007E-05
  1074.27    0.2997E-05
  1077.20    0.2989E-05
  1080.12    0.2980E-05
  1083.05    0.2973E-05
  1085.98    0.2966E-05
  1088.90    0.2959E-05
  1091.83    0.2953E-05
  1094.75    0.2947E-05
  1097.68    0.2942E-05
  1100.61    0.2938E-05
  1103.53    0.2933E-05
  1106.46    0.2930E-05
  1109.38    0.2927E-05
  1112.31    0.2924E-05
  1115.24    0.2921E-05
  1118.16    0.2919E-05
  1121.09    0.2918E-05
  1124.01    0.2917E-05
  1126.94    0.2916E-05
  1129.86    0.2916E-05
  1132.79    0.2916E-05
  1135.72    0.2916E-05
  1138.64    0.2917E-05
  1141.57    0.2918E-05
  1144.49    0.2920E-05
  1147.42    0.2921E-05
  1150.35    0.2924E-05
  1153.27    0.2926E-05
  1156.20    0.2929E-05
  1159.12    0.2933E-05
  1162.05    0.2936E-05
  1164.98    0.2940E-05
  1167.90    0.2945E-05
  1170.83    0.2950E-05
  1173.75    0.2955E-05
  1176.68    0.2960E-05
  1179.61    0.2966E-05
  1182.53    0.2972E-05
  1185.46    0.2978E-05
  1188.38    0.2985E-05
  1191.31    0.2992E-05
  1194.23    0.2999E-05
  1197.16    0.3007E-05
  1200.09    0.3015E-05
  1203.01    0.3023E-05
  1205.94    0.3032E-05
  1208.86    0.3041E-05
  1211.79    0.3050E-05
  1214.72    0.3060E-05
  1217.64    0.3070E-05
  1220.57    0.3080E-05
  1223.49    0.3090E-05
  1226.42    0.3101E-05
  1229.35    0.3112E-05
  1232.27    0.3124E-05
  1235.20    0.3136E-05
  1238.12    0.3148E-05
  1241.05    0.3160E-05
  1243.98    0.3173E-05
  1246.90    0.3186E-05
  1249.83    0.3200E-05
  1252.75    0.3214E-05
  1255.68    0.3228E-05
  1258.60    0.3242E-05
  1261.53    0.3257E-05
  1264.46    0.3272E-05
  1267.38    0.3288E-05
  1270.31    0.3303E-05
  1273.23    0.3320E-05
  1276.16    0.3336E-05
  1279.09    0.3353E-05
  1282.01    0.3370E-05
  1284.94    0.3388E-05
  1287.86    0.3406E-05
  1290.79    0.3424E-05
  1293.72    0.3443E-05
  1296.64    0.3462E-05
  1299.57    0.3481E-05
  1302.49    0.3501E-05
  1305.42    0.3521E-05
  1308.35    0.3542E-05
  1311.27    0.3563E-05
  1314.20    0.3584E-05
  1317.12    0.3606E-05
  1320.05    0.3628E-05
  1322.98    0.3651E-05
  1325.90    0.3674E-05
  1328.83    0.3697E-05
  1331.75    0.3721E-05
  1334.68    0.3745E-05
  1337.60    0.3770E-05
  1340.53    0.3795E-05
  1343.46    0.3821E-05
  1346.38    0.3847E-05
  1349.31    0.3873E-05
  1352.23    0.3901E-05
  1355.16    0.3928E-05
  1358.09    0.3956E-05
  1361.01    0.3985E-05
  1363.94    0.4014E-05
  1366.86    0.4043E-05
  1369.79    0.4073E-05
  1372.72    0.4104E-05
  1375.64    0.4135E-05
  1378.57    0.4167E-05
  1381.49    0.4199E-05
  1384.42    0.4232E-05
  1387.35    0.4265E-05
  1390.27    0.4299E-05
  1393.20    0.4334E-05
  1396.12    0.4369E-05
  1399.05    0.4405E-05
  1401.97    0.4442E-05
  1404.90    0.4479E-05
  1407.83    0.4517E-05
  1410.75    0.4555E-05
  1413.68    0.4594E-05
  1416.60    0.4634E-05
  1419.53    0.4675E-05
  1422.46    0.4716E-05
  1425.38    0.4758E-05
  1428.31    0.4801E-05
  1431.23    0.4845E-05
  1434.16    0.4889E-05
  1437.09    0.4934E-05
  1440.01    0.4980E-05
  1442.94    0.5027E-05
  1445.86    0.5075E-05
  1448.79    0.5124E-05
  1451.72    0.5173E-05
  1454.64    0.5224E-05
  1457.57    0.5275E-05
  1460.49    0.5328E-05
  1463.42    0.5381E-05
  1466.34    0.5435E-05
  1469.27    0.5491E-05
  1472.20    0.5547E-05
  1475.12    0.5605E-05
  1478.05    0.5663E-05
  1480.97    0.5723E-05
  1483.90    0.5784E-05
  1486.83    0.5846E-05
  1489.75    0.5910E-05
  1492.68    0.5974E-05
  1495.60    0.6040E-05
  1498.53    0.6107E-05
  1501.46    0.6176E-05
  1504.38    0.6246E-05
  1507.31    0.6317E-05
  1510.23    0.6390E-05
  1513.16    0.6464E-05
  1516.09    0.6540E-05
  1519.01    0.6617E-05
  1521.94    0.6696E-05
  1524.86    0.6777E-05
  1527.79    0.6859E-05
  1530.71    0.6943E-05
  1533.64    0.7029E-05
  1536.57    0.7117E-05
  1539.49    0.7207E-05
  1542.42    0.7298E-05
  1545.34    0.7392E-05
  1548.27    0.7487E-05
  1551.20    0.7585E-05
  1554.12    0.7685E-05
  1557.05    0.7787E-05
  1559.97    0.7892E-05
  1562.90    0.7999E-05
  1565.83    0.8108E-05
  1568.75    0.8220E-05
  1571.68    0.8334E-05
  1574.60    0.8451E-05
  1577.53    0.8571E-05
  1580.46    0.8694E-05
  1583.38    0.8820E-05
  1586.31    0.8948E-05
  1589.23    0.9080E-05
  1592.16    0.9215E-05
  1595.08    0.9354E-05
  1598.01    0.9496E-05
  1600.94    0.9641E-05
  1603.86    0.9790E-05
  1606.79    0.9943E-05
  1609.71    0.1010E-04
  1612.64    0.1026E-04
  1615.57    0.1043E-04
  1618.49    0.1060E-04
  1621.42    0.1077E-04
  1624.34    0.1095E-04
  1627.27    0.1113E-04
  1630.20    0.1132E-04
  1633.12    0.1151E-04
  1636.05    0.1171E-04
  1638.97    0.1192E-04
  1641.90    0.1213E-04
  1644.83    0.1235E-04
  1647.75    0.1257E-04
  1650.68    0.1280E-04
  1653.60    0.1303E-04
  1656.53    0.1328E-04
  1659.45    0.1353E-04
  1662.38    0.1379E-04
  1665.31    0.1405E-04
  1668.23    0.1433E-04
  1671.16    0.1461E-04
  1674.08    0.1490E-04
  1677.01    0.1520E-04
  1679.94    0.1551E-04
  1682.86    0.1583E-04
  1685.79    0.1616E-04
  1688.71    0.1651E-04
  1691.64    0.1686E-04
  1694.57    0.1723E-04
  1697.49    0.1761E-04
  1700.42    0.1800E-04
  1703.34    0.1840E-04
  1706.27    0.1882E-04
  1709.20    0.1926E-04
  1712.12    0.1971E-04
  1715.05    0.2018E-04
  1717.97    0.2067E-04
  1720.90    0.2117E-04
  1723.83    0.2169E-04
  1726.75    0.2224E-04
  1729.68    0.2281E-04
  1732.60    0.2339E-04
  1735.53    0.2401E-04
  1738.45    0.2464E-04
  1741.38    0.2531E-04
  1744.31    0.2600E-04
  1747.23    0.2672E-04
  1750.16    0.2748E-04
  1753.08    0.2826E-04
  1756.01    0.2909E-04
  1758.94    0.2995E-04
  1761.86    0.3084E-04
  1764.79    0.3179E-04
  1767.71    0.3277E-04
  1770.64    0.3381E-04
  1773.57    0.3489E-04
  1776.49    0.3603E-04
  1779.42    0.3723E-04
  1782.34    0.3849E-04
  1785.27    0.3982E-04
  1788.20    0.4122E-04
  1791.12    0.4269E-04
  1794.05    0.4425E-04
  1796.97    0.4589E-04
  1799.90    0.4763E-04
  1802.82    0.4947E-04
  1805.75    0.5143E-04
  1808.68    0.5350E-04
  1811.60    0.5570E-04
  1814.53    0.5805E-04
  1817.45    0.6054E-04
  1820.38    0.6321E-04
  1823.31    0.6605E-04
  1826.23    0.6910E-04
  1829.16    0.7236E-04
  1832.08    0.7586E-04
  1835.01    0.7963E-04
  1837.94    0.8368E-04
  1840.86    0.8806E-04
  1843.79    0.9279E-04
  1846.71    0.9791E-04
  1849.64    0.1035E-03
  1852.57    0.1095E-03
  1855.49    0.1161E-03
  1858.42    0.1234E-03
  1861.34    0.1313E-03
  1864.27    0.1400E-03
  1867.19    0.1496E-03
  1870.12    0.1603E-03
  1873.05    0.1721E-03
  1875.97    0.1852E-03
  1878.90    0.2000E-03
  1881.82    0.2166E-03
  1884.75    0.2353E-03
  1887.68    0.2565E-03
  1890.60    0.2808E-03
  1893.53    0.3086E-03
  1896.45    0.3408E-03
  1899.38    0.3782E-03
  1902.31    0.4220E-03
  1905.23    0.4738E-03
  1908.16    0.5357E-03
  1911.08    0.6102E-03
  1914.01    0.7011E-03
  1916.94    0.8133E-03
  1919.86    0.9538E-03
  1922.79    0.1133E-02
  1925.71    0.1364E-02
  1928.64    0.1669E-02
  1931.56    0.2081E-02
  1934.49    0.2646E-02
  1937.42    0.3438E-02
  1940.34    0.4553E-02
  1943.27    0.6094E-02
  1946.19    0.8044E-02
  1949.12    0.9972E-02
  1952.05    0.1087E-01
  1954.97    0.1005E-01
  1957.90    0.8152E-02
  1960.82    0.6187E-02
  1963.75    0.4623E-02
  1966.68    0.3487E-02
  1969.60    0.2681E-02
  1972.53    0.2106E-02
  1975.45    0.1688E-02
  1978.38    0.1378E-02
  1981.31    0.1143E-02
  1984.23    0.9622E-03
  1987.16    0.8199E-03
  1990.08    0.7064E-03
  1993.01    0.6146E-03
  1995.93    0.5393E-03
  1998.86    0.4769E-03
  2001.79    0.4246E-03
  2004.71    0.3804E-03
  2007.64    0.3427E-03
  2010.56    0.3103E-03
  2013.49    0.2823E-03
  2016.42    0.2579E-03
  2019.34    0.2365E-03
  2022.27    0.2176E-03
  2025.19    0.2010E-03
  2028.12    0.1861E-03
  2031.05    0.1729E-03
  2033.97    0.1610E-03
  2036.90    0.1503E-03
  2039.82    0.1407E-03
  2042.75    0.1319E-03
  2045.68    0.1240E-03
  2048.60    0.1167E-03
  2051.53    0.1101E-03
  2054.45    0.1040E-03
  2057.38    0.9841E-04
  2060.31    0.9327E-04
  2063.23    0.8853E-04
  2066.16    0.8414E-04
  2069.08    0.8008E-04
  2072.01    0.7631E-04
  2074.93    0.7280E-04
  2077.86    0.6953E-04
  2080.79    0.6648E-04
  2083.71    0.6363E-04
  2086.64    0.6097E-04
  2089.56    0.5847E-04
  2092.49    0.5612E-04
  2095.42    0.5392E-04
  2098.34    0.5185E-04
  2101.27    0.4989E-04
  2104.19    0.4805E-04
  2107.12    0.4631E-04
  2110.05    0.4467E-04
  2112.97    0.4312E-04
  2115.90    0.4164E-04
  2118.82    0.4025E-04
  2121.75    0.3893E-04
  2124.68    0.3767E-04
  2127.60    0.3647E-04
  2130.53    0.3534E-04
  2133.45    0.3426E-04
  2136.38    0.3323E-04
  2139.30    0.3224E-04
  2142.23    0.3131E-04
  2145.16    0.3041E-04
  2148.08    0.2956E-04
  2151.01    0.2874E-04
  2153.93    0.2796E-04
  2156.86    0.2721E-04
  2159.79    0.2649E-04
  2162.71    0.2580E-04
  2165.64    0.2515E-04
  2168.56    0.2451E-04
  2171.49    0.2391E-04
  2174.42    0.2332E-04
  2177.34    0.2276E-04
  2180.27    0.2222E-04
  2183.19    0.2171E-04
  2186.12    0.2121E-04
  2189.05    0.2073E-04
  2191.97    0.2027E-04
  2194.90    0.1982E-04
  2197.82    0.1939E-04
  2200.75    0.1898E-04
  2203.67    0.1858E-04
  2206.60    0.1819E-04
  2209.53    0.1782E-04
  2212.45    0.1746E-04
  2215.38    0.1711E-04
  2218.30    0.1678E-04
  2221.23    0.1645E-04
  2224.16    0.1614E-04
  2227.08    0.1583E-04
  2230.01    0.1554E-04
  2232.93    0.1525E-04
  2235.86    0.1498E-04
  2238.79    0.1471E-04
  2241.71    0.1445E-04
  2244.64    0.1420E-04
  2247.56    0.1396E-04
  2250.49    0.1372E-04
  2253.42    0.1349E-04
  2256.34    0.1327E-04
  2259.27    0.1305E-04
  2262.19    0.1284E-04
  2265.12    0.1264E-04
  2268.04    0.1244E-04
  2270.97    0.1225E-04
  2273.90    0.1207E-04
  2276.82    0.1189E-04
  2279.75    0.1171E-04
  2282.67    0.1154E-04
  2285.60    0.1137E-04
  2288.53    0.1121E-04
  2291.45    0.1105E-04
  2294.38    0.1090E-04
  2297.30    0.1075E-04
  2300.23    0.1061E-04
  2303.16    0.1046E-04
  2306.08    0.1033E-04
  2309.01    0.1019E-04
  2311.93    0.1006E-04
  2314.86    0.9935E-05
  2317.79    0.9811E-05
  2320.71    0.9690E-05
  2323.64    0.9573E-05
  2326.56    0.9458E-05
  2329.49    0.9347E-05
  2332.41    0.9238E-05
  2335.34    0.9132E-05
  2338.27    0.9028E-05
  2341.19    0.8927E-05
  2344.12    0.8829E-05
  2347.04    0.8733E-05
  2349.97    0.8639E-05
  2352.90    0.8548E-05
  2355.82    0.8459E-05
  2358.75    0.8372E-05
  2361.67    0.8287E-05
  2364.60    0.8205E-05
  2367.53    0.8124E-05
  2370.45    0.8045E-05
  2373.38    0.7968E-05
  2376.30    0.7893E-05
  2379.23    0.7820E-05
  2382.16    0.7748E-05
  2385.08    0.7678E-05
  2388.01    0.7610E-05
  2390.93    0.7543E-05
  2393.86    0.7478E-05
  2396.78    0.7415E-05
  2399.71    0.7353E-05
  2402.64    0.7292E-05
  2405.56    0.7233E-05
  2408.49    0.7176E-05
  2411.41    0.7119E-05
  2414.34    0.7064E-05
  2417.27    0.7011E-05
  2420.19    0.6958E-05
  2423.12    0.6907E-05
  2426.04    0.6857E-05
  2428.97    0.6809E-05
  2431.90    0.6761E-05
  2434.82    0.6715E-05
  2437.75    0.6669E-05
  2440.67    0.6625E-05
  2443.60    0.6582E-05
  2446.53    0.6540E-05
  2449.45    0.6499E-05
  2452.38    0.6459E-05
  2455.30    0.6419E-05
  2458.23    0.6381E-05
  2461.16    0.6344E-05
  2464.08    0.6308E-05
  2467.01    0.6273E-05
  2469.93    0.6238E-05
  2472.86    0.6205E-05
  2475.78    0.6172E-05
  2478.71    0.6140E-05
  2481.64    0.6109E-05
  2484.56    0.6079E-05
  2487.49    0.6049E-05
  2490.41    0.6021E-05
  2493.34    0.5993E-05
  2496.27    0.5966E-05
  2499.19    0.5939E-05
  2502.12    0.5914E-05
  2505.04    0.5889E-05
  2507.97    0.5865E-05
  2510.90    0.5841E-05
  2513.82    0.5819E-05
  2516.75    0.5796E-05
  2519.67    0.5775E-05
  2522.60    0.5754E-05
  2525.53    0.5734E-05
  2528.45    0.5715E-05
  2531.38    0.5696E-05
  2534.30    0.5678E-05
  2537.23    0.5660E-05
  2540.15    0.5643E-05
  2543.08    0.5627E-05
  2546.01    0.5611E-05
  2548.93    0.5596E-05
  2551.86    0.5581E-05
  2554.78    0.5567E-05
  2557.71    0.5553E-05
  2560.64    0.5540E-05
  2563.56    0.5528E-05
  2566.49    0.5516E-05
  2569.41    0.5505E-05
  2572.34    0.5494E-05
  2575.27    0.5484E-05
  2578.19    0.5474E-05
  2581.12    0.5465E-05
  2584.04    0.5456E-05
  2586.97    0.5448E-05
  2589.90    0.5440E-05
  2592.82    0.5433E-05
  2595.75    0.5426E-05
  2598.67    0.5420E-05
  2601.60    0.5414E-05
  2604.52    0.5409E-05
  2607.45    0.5404E-05
  2610.38    0.5400E-05
  2613.30    0.5396E-05
  2616.23    0.5393E-05
  2619.15    0.5390E-05
  2622.08    0.5388E-05
  2625.01    0.5386E-05
  2627.93    0.5385E-05
  2630.86    0.5384E-05
  2633.78    0.5383E-05
  2636.71    0.5383E-05
  2639.64    0.5383E-05
  2642.56    0.5384E-05
  2645.49    0.5386E-05
  2648.41    0.5387E-05
  2651.34    0.5390E-05
  2654.27    0.5392E-05
  2657.19    0.5395E-05
  2660.12    0.5399E-05
  2663.04    0.5403E-05
  2665.97    0.5407E-05
  2668.89    0.5412E-05
  2671.82    0.5417E-05
  2674.75    0.5423E-05
  2677.67    0.5429E-05
  2680.60    0.5436E-05
  2683.52    0.5443E-05
  2686.45    0.5451E-05
  2689.38    0.5459E-05
  2692.30    0.5467E-05
  2695.23    0.5476E-05
  2698.15    0.5485E-05
  2701.08    0.5495E-05
  2704.01    0.5506E-05
  2706.93    0.5516E-05
  2709.86    0.5527E-05
  2712.78    0.5539E-05
  2715.71    0.5551E-05
  2718.64    0.5563E-05
  2721.56    0.5576E-05
  2724.49    0.5590E-05
  2727.41    0.5604E-05
  2730.34    0.5618E-05
  2733.26    0.5633E-05
  2736.19    0.5648E-05
  2739.12    0.5664E-05
  2742.04    0.5680E-05
  2744.97    0.5697E-05
  2747.89    0.5714E-05
  2750.82    0.5732E-05
  2753.75    0.5750E-05
  2756.67    0.5769E-05
  2759.60    0.5788E-05
  2762.52    0.5808E-05
  2765.45    0.5828E-05
  2768.38    0.5848E-05
  2771.30    0.5870E-05
  2774.23    0.5891E-05
  2777.15    0.5913E-05
  2780.08    0.5936E-05
  2783.01    0.5959E-05
  2785.93    0.5983E-05
  2788.86    0.6008E-05
  2791.78    0.6032E-05
  2794.71    0.6058E-05
  2797.64    0.6084E-05
  2800.56    0.6110E-05
  2803.49    0.6137E-05
  2806.41    0.6165E-05
  2809.34    0.6193E-05
  2812.26    0.6222E-05
  2815.19    0.6252E-05
  2818.12    0.6282E-05
  2821.04    0.6312E-05
  2823.97    0.6344E-05
  2826.89    0.6375E-05
  2829.82    0.6408E-05
  2832.75    0.6441E-05
  2835.67    0.6475E-05
  2838.60    0.6509E-05
  2841.52    0.6544E-05
  2844.45    0.6580E-05
  2847.38    0.6617E-05
  2850.30    0.6654E-05
  2853.23    0.6692E-05
  2856.15    0.6730E-05
  2859.08    0.6769E-05
  2862.01    0.6809E-05
  2864.93    0.6850E-05
  2867.86    0.6891E-05
  2870.78    0.6934E-05
  2873.71    0.6977E-05
  2876.63    0.7020E-05
  2879.56    0.7065E-05
  2882.49    0.7110E-05
  2885.41    0.7157E-05
  2888.34    0.7204E-05
  2891.26    0.7251E-05
  2894.19    0.7300E-05
  2897.12    0.7350E-05
  2900.04    0.7400E-05
  2902.97    0.7452E-05
  2905.89    0.7504E-05
  2908.82    0.7557E-05
  2911.75    0.7611E-05
  2914.67    0.7667E-05
  2917.60    0.7723E-05
  2920.52    0.7780E-05
  2923.45    0.7838E-05
  2926.38    0.7897E-05
  2929.30    0.7958E-05
  2932.23    0.8019E-05
  2935.15    0.8081E-05
  2938.08    0.8145E-05
  2941.00    0.8210E-05
  2943.93    0.8275E-05
  2946.86    0.8342E-05
  2949.78    0.8411E-05
  2952.71    0.8480E-05
  2955.63    0.8551E-05
  2958.56    0.8623E-05
  2961.49    0.8696E-05
  2964.41    0.8770E-05
  2967.34    0.8846E-05
  2970.26    0.8924E-05
  2973.19    0.9002E-05
  2976.12    0.9082E-05
  2979.04    0.9164E-05
  2981.97    0.9247E-05
  2984.89    0.9332E-05
  2987.82    0.9418E-05
  2990.75    0.9506E-05
  2993.67    0.9595E-05
  2996.60    0.9686E-05
  2999.52    0.9779E-05
  3002.45    0.9873E-05
  3005.37    0.9970E-05
  3008.30    0.1007E-04
  3011.23    0.1017E-04
  3014.15    0.1027E-04
  3017.08    0.1037E-04
  3020.00    0.1048E-04
  3022.93    0.1059E-04
  3025.86    0.1070E-04
  3028.78    0.1081E-04
  3031.71    0.1092E-04
  3034.63    0.1104E-04
  3037.56    0.1116E-04
  3040.49    0.1128E-04
  3043.41    0.1140E-04
  3046.34    0.1153E-04
  3049.26    0.1166E-04
  3052.19    0.1179E-04
  3055.12    0.1192E-04
  3058.04    0.1206E-04
  3060.97    0.1219E-04
  3063.89    0.1234E-04
  3066.82    0.1248E-04
  3069.74    0.1263E-04
  3072.67    0.1278E-04
  3075.60    0.1293E-04
  3078.52    0.1309E-04
  3081.45    0.1325E-04
  3084.37    0.1341E-04
  3087.30    0.1358E-04
  3090.23    0.1375E-04
  3093.15    0.1393E-04
  3096.08    0.1411E-04
  3099.00    0.1429E-04
  3101.93    0.1447E-04
  3104.86    0.1466E-04
  3107.78    0.1486E-04
  3110.71    0.1506E-04
  3113.63    0.1526E-04
  3116.56    0.1547E-04
  3119.49    0.1568E-04
  3122.41    0.1590E-04
  3125.34    0.1612E-04
  3128.26    0.1635E-04
  3131.19    0.1658E-04
  3134.12    0.1682E-04
  3137.04    0.1707E-04
  3139.97    0.1732E-04
  3142.89    0.1757E-04
  3145.82    0.1783E-04
  3148.74    0.1810E-04
  3151.67    0.1838E-04
  3154.60    0.1866E-04
  3157.52    0.1895E-04
  3160.45    0.1925E-04
  3163.37    0.1955E-04
  3166.30    0.1986E-04
  3169.23    0.2018E-04
  3172.15    0.2051E-04
  3175.08    0.2085E-04
  3178.00    0.2119E-04
  3180.93    0.2155E-04
  3183.86    0.2191E-04
  3186.78    0.2229E-04
  3189.71    0.2267E-04
  3192.63    0.2306E-04
  3195.56    0.2347E-04
  3198.49    0.2389E-04
  3201.41    0.2432E-04
  3204.34    0.2476E-04
  3207.26    0.2521E-04
  3210.19    0.2568E-04
  3213.11    0.2616E-04
  3216.04    0.2666E-04
  3218.97    0.2717E-04
  3221.89    0.2769E-04
  3224.82    0.2823E-04
  3227.74    0.2879E-04
  3230.67    0.2937E-04
  3233.60    0.2996E-04
  3236.52    0.3057E-04
  3239.45    0.3121E-04
  3242.37    0.3186E-04
  3245.30    0.3253E-04
  3248.23    0.3323E-04
  3251.15    0.3395E-04
  3254.08    0.3469E-04
  3257.00    0.3546E-04
  3259.93    0.3626E-04
  3262.86    0.3708E-04
  3265.78    0.3793E-04
  3268.71    0.3882E-04
  3271.63    0.3973E-04
  3274.56    0.4068E-04
  3277.48    0.4167E-04
  3280.41    0.4269E-04
  3283.34    0.4375E-04
  3286.26    0.4485E-04
  3289.19    0.4599E-04
  3292.11    0.4718E-04
  3295.04    0.4842E-04
  3297.97    0.4970E-04
  3300.89    0.5104E-04
  3303.82    0.5244E-04
  3306.74    0.5389E-04
  3309.67    0.5541E-04
  3312.60    0.5699E-04
  3315.52    0.5864E-04
  3318.45    0.6036E-04
  3321.37    0.6217E-04
  3324.30    0.6405E-04
  3327.23    0.6603E-04
  3330.15    0.6810E-04
  3333.08    0.7027E-04
  3336.00    0.7254E-04
  3338.93    0.7493E-04
  3341.85    0.7744E-04
  3344.78    0.8008E-04
  3347.71    0.8286E-04
  3350.63    0.8578E-04
  3353.56    0.8887E-04
  3356.48    0.9212E-04
  3359.41    0.9556E-04
  3362.34    0.9920E-04
  3365.26    0.1030E-03
  3368.19    0.1071E-03
  3371.11    0.1114E-03
  3374.04    0.1160E-03
  3376.97    0.1209E-03
  3379.89    0.1261E-03
  3382.82    0.1317E-03
  3385.74    0.1376E-03
  3388.67    0.1439E-03
  3391.60    0.1507E-03
  3394.52    0.1580E-03
  3397.45    0.1658E-03
  3400.37    0.1742E-03
  3403.30    0.1833E-03
  3406.22    0.1931E-03
  3409.15    0.2037E-03
  3412.08    0.2152E-03
  3415.00    0.2277E-03
  3417.93    0.2413E-03
  3420.85    0.2562E-03
  3423.78    0.2725E-03
  3426.71    0.2904E-03
  3429.63    0.3101E-03
  3432.56    0.3319E-03
  3435.48    0.3561E-03
  3438.41    0.3830E-03
  3441.34    0.4130E-03
  3444.26    0.4467E-03
  3447.19    0.4847E-03
  3450.11    0.5278E-03
  3453.04    0.5767E-03
  3455.97    0.6328E-03
  3458.89    0.6973E-03
  3461.82    0.7721E-03
  3464.74    0.8595E-03
  3467.67    0.9624E-03
  3470.59    0.1085E-02
  3473.52    0.1231E-02
  3476.45    0.1409E-02
  3479.37    0.1627E-02
  3482.30    0.1899E-02
  3485.22    0.2241E-02
  3488.15    0.2681E-02
  3491.08    0.3256E-02
  3494.00    0.4024E-02
  3496.93    0.5069E-02
  3499.85    0.6520E-02
  3502.78    0.8563E-02
  3505.71    0.1143E-01
  3508.63    0.1525E-01
  3511.56    0.1962E-01
  3514.48    0.2289E-01
  3517.41    0.2286E-01
  3520.34    0.1956E-01
  3523.26    0.1519E-01
  3526.19    0.1138E-01
  3529.11    0.8532E-02
  3532.04    0.6498E-02
  3534.97    0.5053E-02
  3537.89    0.4012E-02
  3540.82    0.3248E-02
  3543.74    0.2675E-02
  3546.67    0.2236E-02
  3549.59    0.1895E-02
  3552.52    0.1624E-02
  3555.45    0.1407E-02
  3558.37    0.1229E-02
  3561.30    0.1083E-02
  3564.22    0.9610E-03
  3567.15    0.8583E-03
  3570.08    0.7710E-03
  3573.00    0.6963E-03
  3575.93    0.6319E-03
  3578.85    0.5760E-03
