
 ------------------------------------------------------------
     normal          Raman Scattering Plot
 ------------------------------------------------------------
 Excitation wavelength  514.50 nm
 Convolution lineshape is lorentzian  
 FWHM   20.00  1/cm
 ------------------------------------------------------------
 ------------------------------------------------------------
 # of frequencies :     6
 ------------------------------------------------------------
 #  freq [ 1/cm]  S [Ang**4/amu]
 ------------------------------------------------------------
   1   737.65        0.4766
   2   767.59        0.0000
   3   767.59        0.0000
   4  1907.55       11.7022
   5  3402.49        0.0000
   6  3507.36       71.2805
 ------------------------------------------------------------
   680.54    0.4600E-04
   683.44    0.5077E-04
   686.33    0.5633E-04
   689.22    0.6286E-04
   692.11    0.7059E-04
   695.01    0.7984E-04
   697.90    0.9102E-04
   700.79    0.1047E-03
   703.68    0.1216E-03
   706.58    0.1429E-03
   709.47    0.1701E-03
   712.36    0.2055E-03
   715.25    0.2524E-03
   718.15    0.3158E-03
   721.04    0.4033E-03
   723.93    0.5257E-03
   726.83    0.6972E-03
   729.72    0.9290E-03
   732.61    0.1207E-02
   735.50    0.1446E-02
   738.40    0.1505E-02
   741.29    0.1336E-02
   744.18    0.1061E-02
   747.07    0.8020E-03
   749.97    0.6019E-03
   752.86    0.4575E-03
   755.75    0.3547E-03
   758.64    0.2807E-03
   761.54    0.2266E-03
   764.43    0.1862E-03
   767.32    0.1554E-03
   770.21    0.1314E-03
   773.11    0.1126E-03
   776.00    0.9743E-04
   778.89    0.8512E-04
   781.78    0.7501E-04
   784.68    0.6659E-04
   787.57    0.5952E-04
   790.46    0.5352E-04
   793.36    0.4840E-04
   796.25    0.4399E-04
   799.14    0.4016E-04
   802.03    0.3683E-04
   804.93    0.3390E-04
   807.82    0.3132E-04
   810.71    0.2903E-04
   813.60    0.2700E-04
   816.50    0.2518E-04
   819.39    0.2354E-04
   822.28    0.2207E-04
   825.17    0.2074E-04
   828.07    0.1953E-04
   830.96    0.1844E-04
   833.85    0.1744E-04
   836.74    0.1652E-04
   839.64    0.1568E-04
   842.53    0.1491E-04
   845.42    0.1420E-04
   848.31    0.1355E-04
   851.21    0.1294E-04
   854.10    0.1238E-04
   856.99    0.1186E-04
   859.89    0.1138E-04
   862.78    0.1093E-04
   865.67    0.1051E-04
   868.56    0.1012E-04
   871.46    0.9750E-05
   874.35    0.9407E-05
   877.24    0.9085E-05
   880.13    0.8783E-05
   883.03    0.8499E-05
   885.92    0.8231E-05
   888.81    0.7980E-05
   891.70    0.7742E-05
   894.60    0.7518E-05
   897.49    0.7307E-05
   900.38    0.7107E-05
   903.27    0.6917E-05
   906.17    0.6738E-05
   909.06    0.6568E-05
   911.95    0.6407E-05
   914.84    0.6254E-05
   917.74    0.6109E-05
   920.63    0.5971E-05
   923.52    0.5839E-05
   926.41    0.5714E-05
   929.31    0.5595E-05
   932.20    0.5482E-05
   935.09    0.5374E-05
   937.99    0.5271E-05
   940.88    0.5173E-05
   943.77    0.5079E-05
   946.66    0.4989E-05
   949.56    0.4904E-05
   952.45    0.4822E-05
   955.34    0.4744E-05
   958.23    0.4669E-05
   961.13    0.4598E-05
   964.02    0.4530E-05
   966.91    0.4464E-05
   969.80    0.4402E-05
   972.70    0.4342E-05
   975.59    0.4284E-05
   978.48    0.4229E-05
   981.37    0.4177E-05
   984.27    0.4126E-05
   987.16    0.4078E-05
   990.05    0.4032E-05
   992.94    0.3988E-05
   995.84    0.3945E-05
   998.73    0.3904E-05
  1001.62    0.3865E-05
  1004.52    0.3828E-05
  1007.41    0.3792E-05
  1010.30    0.3758E-05
  1013.19    0.3725E-05
  1016.09    0.3694E-05
  1018.98    0.3664E-05
  1021.87    0.3635E-05
  1024.76    0.3608E-05
  1027.66    0.3581E-05
  1030.55    0.3556E-05
  1033.44    0.3532E-05
  1036.33    0.3509E-05
  1039.23    0.3487E-05
  1042.12    0.3466E-05
  1045.01    0.3446E-05
  1047.90    0.3428E-05
  1050.80    0.3410E-05
  1053.69    0.3392E-05
  1056.58    0.3376E-05
  1059.47    0.3361E-05
  1062.37    0.3346E-05
  1065.26    0.3332E-05
  1068.15    0.3319E-05
  1071.05    0.3307E-05
  1073.94    0.3295E-05
  1076.83    0.3284E-05
  1079.72    0.3274E-05
  1082.62    0.3265E-05
  1085.51    0.3256E-05
  1088.40    0.3248E-05
  1091.29    0.3240E-05
  1094.19    0.3233E-05
  1097.08    0.3227E-05
  1099.97    0.3221E-05
  1102.86    0.3215E-05
  1105.76    0.3211E-05
  1108.65    0.3207E-05
  1111.54    0.3203E-05
  1114.43    0.3200E-05
  1117.33    0.3197E-05
  1120.22    0.3195E-05
  1123.11    0.3194E-05
  1126.00    0.3193E-05
  1128.90    0.3192E-05
  1131.79    0.3192E-05
  1134.68    0.3192E-05
  1137.58    0.3193E-05
  1140.47    0.3194E-05
  1143.36    0.3196E-05
  1146.25    0.3198E-05
  1149.15    0.3201E-05
  1152.04    0.3204E-05
  1154.93    0.3207E-05
  1157.82    0.3211E-05
  1160.72    0.3215E-05
  1163.61    0.3220E-05
  1166.50    0.3225E-05
  1169.39    0.3231E-05
  1172.29    0.3237E-05
  1175.18    0.3243E-05
  1178.07    0.3250E-05
  1180.96    0.3257E-05
  1183.86    0.3264E-05
  1186.75    0.3272E-05
  1189.64    0.3281E-05
  1192.53    0.3289E-05
  1195.43    0.3298E-05
  1198.32    0.3308E-05
  1201.21    0.3318E-05
  1204.11    0.3328E-05
  1207.00    0.3339E-05
  1209.89    0.3350E-05
  1212.78    0.3361E-05
  1215.68    0.3373E-05
  1218.57    0.3385E-05
  1221.46    0.3397E-05
  1224.35    0.3410E-05
  1227.25    0.3424E-05
  1230.14    0.3437E-05
  1233.03    0.3451E-05
  1235.92    0.3466E-05
  1238.82    0.3481E-05
  1241.71    0.3496E-05
  1244.60    0.3512E-05
  1247.49    0.3528E-05
  1250.39    0.3544E-05
  1253.28    0.3561E-05
  1256.17    0.3578E-05
  1259.06    0.3596E-05
  1261.96    0.3614E-05
  1264.85    0.3633E-05
  1267.74    0.3652E-05
  1270.64    0.3671E-05
  1273.53    0.3691E-05
  1276.42    0.3711E-05
  1279.31    0.3732E-05
  1282.21    0.3753E-05
  1285.10    0.3774E-05
  1287.99    0.3796E-05
  1290.88    0.3819E-05
  1293.78    0.3842E-05
  1296.67    0.3865E-05
  1299.56    0.3889E-05
  1302.45    0.3913E-05
  1305.35    0.3938E-05
  1308.24    0.3963E-05
  1311.13    0.3989E-05
  1314.02    0.4015E-05
  1316.92    0.4042E-05
  1319.81    0.4070E-05
  1322.70    0.4097E-05
  1325.59    0.4126E-05
  1328.49    0.4155E-05
  1331.38    0.4184E-05
  1334.27    0.4214E-05
  1337.16    0.4245E-05
  1340.06    0.4276E-05
  1342.95    0.4308E-05
  1345.84    0.4340E-05
  1348.74    0.4373E-05
  1351.63    0.4406E-05
  1354.52    0.4441E-05
  1357.41    0.4475E-05
  1360.31    0.4511E-05
  1363.20    0.4547E-05
  1366.09    0.4584E-05
  1368.98    0.4621E-05
  1371.88    0.4659E-05
  1374.77    0.4698E-05
  1377.66    0.4738E-05
  1380.55    0.4778E-05
  1383.45    0.4819E-05
  1386.34    0.4861E-05
  1389.23    0.4904E-05
  1392.12    0.4947E-05
  1395.02    0.4991E-05
  1397.91    0.5036E-05
  1400.80    0.5082E-05
  1403.69    0.5129E-05
  1406.59    0.5177E-05
  1409.48    0.5225E-05
  1412.37    0.5275E-05
  1415.27    0.5325E-05
  1418.16    0.5376E-05
  1421.05    0.5429E-05
  1423.94    0.5482E-05
  1426.84    0.5536E-05
  1429.73    0.5592E-05
  1432.62    0.5648E-05
  1435.51    0.5706E-05
  1438.41    0.5765E-05
  1441.30    0.5825E-05
  1444.19    0.5886E-05
  1447.08    0.5948E-05
  1449.98    0.6011E-05
  1452.87    0.6076E-05
  1455.76    0.6142E-05
  1458.65    0.6210E-05
  1461.55    0.6279E-05
  1464.44    0.6349E-05
  1467.33    0.6420E-05
  1470.22    0.6493E-05
  1473.12    0.6568E-05
  1476.01    0.6644E-05
  1478.90    0.6722E-05
  1481.80    0.6801E-05
  1484.69    0.6882E-05
  1487.58    0.6965E-05
  1490.47    0.7049E-05
  1493.37    0.7136E-05
  1496.26    0.7224E-05
  1499.15    0.7314E-05
  1502.04    0.7406E-05
  1504.94    0.7500E-05
  1507.83    0.7596E-05
  1510.72    0.7695E-05
  1513.61    0.7795E-05
  1516.51    0.7898E-05
  1519.40    0.8003E-05
  1522.29    0.8111E-05
  1525.18    0.8221E-05
  1528.08    0.8333E-05
  1530.97    0.8448E-05
  1533.86    0.8566E-05
  1536.75    0.8687E-05
  1539.65    0.8811E-05
  1542.54    0.8937E-05
  1545.43    0.9067E-05
  1548.33    0.9199E-05
  1551.22    0.9335E-05
  1554.11    0.9475E-05
  1557.00    0.9618E-05
  1559.90    0.9764E-05
  1562.79    0.9914E-05
  1565.68    0.1007E-04
  1568.57    0.1023E-04
  1571.47    0.1039E-04
  1574.36    0.1055E-04
  1577.25    0.1073E-04
  1580.14    0.1090E-04
  1583.04    0.1108E-04
  1585.93    0.1127E-04
  1588.82    0.1146E-04
  1591.71    0.1165E-04
  1594.61    0.1185E-04
  1597.50    0.1206E-04
  1600.39    0.1227E-04
  1603.28    0.1249E-04
  1606.18    0.1271E-04
  1609.07    0.1294E-04
  1611.96    0.1318E-04
  1614.86    0.1343E-04
  1617.75    0.1368E-04
  1620.64    0.1394E-04
  1623.53    0.1421E-04
  1626.43    0.1448E-04
  1629.32    0.1477E-04
  1632.21    0.1506E-04
  1635.10    0.1536E-04
  1638.00    0.1568E-04
  1640.89    0.1600E-04
  1643.78    0.1634E-04
  1646.67    0.1668E-04
  1649.57    0.1704E-04
  1652.46    0.1741E-04
  1655.35    0.1779E-04
  1658.24    0.1818E-04
  1661.14    0.1859E-04
  1664.03    0.1901E-04
  1666.92    0.1945E-04
  1669.81    0.1991E-04
  1672.71    0.2038E-04
  1675.60    0.2087E-04
  1678.49    0.2138E-04
  1681.39    0.2190E-04
  1684.28    0.2245E-04
  1687.17    0.2302E-04
  1690.06    0.2361E-04
  1692.96    0.2423E-04
  1695.85    0.2487E-04
  1698.74    0.2554E-04
  1701.63    0.2624E-04
  1704.53    0.2696E-04
  1707.42    0.2772E-04
  1710.31    0.2851E-04
  1713.20    0.2934E-04
  1716.10    0.3021E-04
  1718.99    0.3111E-04
  1721.88    0.3206E-04
  1724.77    0.3305E-04
  1727.67    0.3409E-04
  1730.56    0.3518E-04
  1733.45    0.3633E-04
  1736.34    0.3753E-04
  1739.24    0.3880E-04
  1742.13    0.4013E-04
  1745.02    0.4153E-04
  1747.91    0.4301E-04
  1750.81    0.4458E-04
  1753.70    0.4623E-04
  1756.59    0.4797E-04
  1759.49    0.4982E-04
  1762.38    0.5178E-04
  1765.27    0.5386E-04
  1768.16    0.5607E-04
  1771.06    0.5842E-04
  1773.95    0.6093E-04
  1776.84    0.6360E-04
  1779.73    0.6645E-04
  1782.63    0.6950E-04
  1785.52    0.7277E-04
  1788.41    0.7627E-04
  1791.30    0.8004E-04
  1794.20    0.8410E-04
  1797.09    0.8848E-04
  1799.98    0.9321E-04
  1802.87    0.9833E-04
  1805.77    0.1039E-03
  1808.66    0.1099E-03
  1811.55    0.1165E-03
  1814.44    0.1238E-03
  1817.34    0.1317E-03
  1820.23    0.1403E-03
  1823.12    0.1499E-03
  1826.02    0.1605E-03
  1828.91    0.1723E-03
  1831.80    0.1854E-03
  1834.69    0.2001E-03
  1837.59    0.2165E-03
  1840.48    0.2351E-03
  1843.37    0.2562E-03
  1846.26    0.2802E-03
  1849.16    0.3077E-03
  1852.05    0.3395E-03
  1854.94    0.3764E-03
  1857.83    0.4197E-03
  1860.73    0.4707E-03
  1863.62    0.5314E-03
  1866.51    0.6045E-03
  1869.40    0.6934E-03
  1872.30    0.8028E-03
  1875.19    0.9395E-03
  1878.08    0.1113E-02
  1880.97    0.1336E-02
  1883.87    0.1630E-02
  1886.76    0.2024E-02
  1889.65    0.2563E-02
  1892.55    0.3313E-02
  1895.44    0.4366E-02
  1898.33    0.5822E-02
  1901.22    0.7691E-02
  1904.12    0.9632E-02
  1907.01    0.1073E-01
  1909.90    0.1020E-01
  1912.79    0.8443E-02
  1915.69    0.6477E-02
  1918.58    0.4857E-02
  1921.47    0.3664E-02
  1924.36    0.2813E-02
  1927.26    0.2205E-02
  1930.15    0.1763E-02
  1933.04    0.1436E-02
  1935.93    0.1190E-02
  1938.83    0.9993E-03
  1941.72    0.8502E-03
  1944.61    0.7315E-03
  1947.50    0.6356E-03
  1950.40    0.5571E-03
  1953.29    0.4921E-03
  1956.18    0.4378E-03
  1959.08    0.3918E-03
  1961.97    0.3527E-03
  1964.86    0.3192E-03
  1967.75    0.2901E-03
  1970.65    0.2649E-03
  1973.54    0.2428E-03
  1976.43    0.2233E-03
  1979.32    0.2061E-03
  1982.22    0.1908E-03
  1985.11    0.1772E-03
  1988.00    0.1649E-03
  1990.89    0.1539E-03
  1993.79    0.1440E-03
  1996.68    0.1350E-03
  1999.57    0.1268E-03
  2002.46    0.1193E-03
  2005.36    0.1125E-03
  2008.25    0.1063E-03
  2011.14    0.1006E-03
  2014.03    0.9529E-04
  2016.93    0.9042E-04
  2019.82    0.8592E-04
  2022.71    0.8175E-04
  2025.61    0.7788E-04
  2028.50    0.7429E-04
  2031.39    0.7094E-04
  2034.28    0.6782E-04
  2037.18    0.6490E-04
  2040.07    0.6217E-04
  2042.96    0.5961E-04
  2045.85    0.5721E-04
  2048.75    0.5496E-04
  2051.64    0.5284E-04
  2054.53    0.5084E-04
  2057.42    0.4895E-04
  2060.32    0.4718E-04
  2063.21    0.4550E-04
  2066.10    0.4391E-04
  2068.99    0.4240E-04
  2071.89    0.4098E-04
  2074.78    0.3962E-04
  2077.67    0.3834E-04
  2080.56    0.3712E-04
  2083.46    0.3596E-04
  2086.35    0.3485E-04
  2089.24    0.3380E-04
  2092.14    0.3280E-04
  2095.03    0.3184E-04
  2097.92    0.3093E-04
  2100.81    0.3005E-04
  2103.71    0.2922E-04
  2106.60    0.2842E-04
  2109.49    0.2766E-04
  2112.38    0.2693E-04
  2115.28    0.2622E-04
  2118.17    0.2555E-04
  2121.06    0.2491E-04
  2123.95    0.2429E-04
  2126.85    0.2369E-04
  2129.74    0.2312E-04
  2132.63    0.2257E-04
  2135.52    0.2204E-04
  2138.42    0.2153E-04
  2141.31    0.2104E-04
  2144.20    0.2057E-04
  2147.09    0.2012E-04
  2149.99    0.1968E-04
  2152.88    0.1926E-04
  2155.77    0.1885E-04
  2158.66    0.1846E-04
  2161.56    0.1808E-04
  2164.45    0.1771E-04
  2167.34    0.1735E-04
  2170.24    0.1701E-04
  2173.13    0.1668E-04
  2176.02    0.1636E-04
  2178.91    0.1605E-04
  2181.81    0.1575E-04
  2184.70    0.1546E-04
  2187.59    0.1518E-04
  2190.48    0.1490E-04
  2193.38    0.1464E-04
  2196.27    0.1438E-04
  2199.16    0.1414E-04
  2202.05    0.1389E-04
  2204.95    0.1366E-04
  2207.84    0.1343E-04
  2210.73    0.1321E-04
  2213.62    0.1300E-04
  2216.52    0.1279E-04
  2219.41    0.1259E-04
  2222.30    0.1240E-04
  2225.19    0.1221E-04
  2228.09    0.1202E-04
  2230.98    0.1184E-04
  2233.87    0.1167E-04
  2236.77    0.1150E-04
  2239.66    0.1133E-04
  2242.55    0.1117E-04
  2245.44    0.1101E-04
  2248.34    0.1086E-04
  2251.23    0.1071E-04
  2254.12    0.1057E-04
  2257.01    0.1043E-04
  2259.91    0.1029E-04
  2262.80    0.1016E-04
  2265.69    0.1003E-04
  2268.58    0.9901E-05
  2271.48    0.9778E-05
  2274.37    0.9658E-05
  2277.26    0.9540E-05
  2280.15    0.9426E-05
  2283.05    0.9315E-05
  2285.94    0.9206E-05
  2288.83    0.9100E-05
  2291.72    0.8997E-05
  2294.62    0.8896E-05
  2297.51    0.8798E-05
  2300.40    0.8702E-05
  2303.30    0.8608E-05
  2306.19    0.8517E-05
  2309.08    0.8427E-05
  2311.97    0.8340E-05
  2314.87    0.8255E-05
  2317.76    0.8172E-05
  2320.65    0.8091E-05
  2323.54    0.8012E-05
  2326.44    0.7935E-05
  2329.33    0.7860E-05
  2332.22    0.7786E-05
  2335.11    0.7714E-05
  2338.01    0.7644E-05
  2340.90    0.7575E-05
  2343.79    0.7508E-05
  2346.68    0.7443E-05
  2349.58    0.7379E-05
  2352.47    0.7316E-05
  2355.36    0.7255E-05
  2358.25    0.7196E-05
  2361.15    0.7138E-05
  2364.04    0.7081E-05
  2366.93    0.7025E-05
  2369.83    0.6971E-05
  2372.72    0.6918E-05
  2375.61    0.6866E-05
  2378.50    0.6815E-05
  2381.40    0.6766E-05
  2384.29    0.6718E-05
  2387.18    0.6671E-05
  2390.07    0.6625E-05
  2392.97    0.6580E-05
  2395.86    0.6536E-05
  2398.75    0.6493E-05
  2401.64    0.6451E-05
  2404.54    0.6410E-05
  2407.43    0.6370E-05
  2410.32    0.6331E-05
  2413.21    0.6293E-05
  2416.11    0.6256E-05
  2419.00    0.6220E-05
  2421.89    0.6185E-05
  2424.78    0.6150E-05
  2427.68    0.6116E-05
  2430.57    0.6084E-05
  2433.46    0.6052E-05
  2436.36    0.6020E-05
  2439.25    0.5990E-05
  2442.14    0.5960E-05
  2445.03    0.5931E-05
  2447.93    0.5903E-05
  2450.82    0.5876E-05
  2453.71    0.5849E-05
  2456.60    0.5823E-05
  2459.50    0.5798E-05
  2462.39    0.5773E-05
  2465.28    0.5749E-05
  2468.17    0.5726E-05
  2471.07    0.5703E-05
  2473.96    0.5681E-05
  2476.85    0.5660E-05
  2479.74    0.5639E-05
  2482.64    0.5619E-05
  2485.53    0.5600E-05
  2488.42    0.5581E-05
  2491.31    0.5562E-05
  2494.21    0.5545E-05
  2497.10    0.5527E-05
  2499.99    0.5511E-05
  2502.89    0.5495E-05
  2505.78    0.5479E-05
  2508.67    0.5464E-05
  2511.56    0.5450E-05
  2514.46    0.5436E-05
  2517.35    0.5423E-05
  2520.24    0.5410E-05
  2523.13    0.5397E-05
  2526.03    0.5386E-05
  2528.92    0.5374E-05
  2531.81    0.5363E-05
  2534.70    0.5353E-05
  2537.60    0.5343E-05
  2540.49    0.5334E-05
  2543.38    0.5325E-05
  2546.27    0.5317E-05
  2549.17    0.5309E-05
  2552.06    0.5301E-05
  2554.95    0.5294E-05
  2557.84    0.5287E-05
  2560.74    0.5281E-05
  2563.63    0.5276E-05
  2566.52    0.5270E-05
  2569.41    0.5266E-05
  2572.31    0.5261E-05
  2575.20    0.5257E-05
  2578.09    0.5254E-05
  2580.99    0.5251E-05
  2583.88    0.5248E-05
  2586.77    0.5246E-05
  2589.66    0.5244E-05
  2592.56    0.5243E-05
  2595.45    0.5242E-05
  2598.34    0.5241E-05
  2601.23    0.5241E-05
  2604.13    0.5242E-05
  2607.02    0.5242E-05
  2609.91    0.5244E-05
  2612.80    0.5245E-05
  2615.70    0.5247E-05
  2618.59    0.5250E-05
  2621.48    0.5252E-05
  2624.37    0.5256E-05
  2627.27    0.5259E-05
  2630.16    0.5263E-05
  2633.05    0.5268E-05
  2635.94    0.5272E-05
  2638.84    0.5278E-05
  2641.73    0.5283E-05
  2644.62    0.5289E-05
  2647.52    0.5296E-05
  2650.41    0.5302E-05
  2653.30    0.5310E-05
  2656.19    0.5317E-05
  2659.09    0.5325E-05
  2661.98    0.5334E-05
  2664.87    0.5343E-05
  2667.76    0.5352E-05
  2670.66    0.5362E-05
  2673.55    0.5372E-05
  2676.44    0.5382E-05
  2679.33    0.5393E-05
  2682.23    0.5404E-05
  2685.12    0.5416E-05
  2688.01    0.5428E-05
  2690.90    0.5441E-05
  2693.80    0.5454E-05
  2696.69    0.5467E-05
  2699.58    0.5481E-05
  2702.47    0.5495E-05
  2705.37    0.5510E-05
  2708.26    0.5525E-05
  2711.15    0.5541E-05
  2714.05    0.5557E-05
  2716.94    0.5573E-05
  2719.83    0.5590E-05
  2722.72    0.5607E-05
  2725.62    0.5625E-05
  2728.51    0.5643E-05
  2731.40    0.5662E-05
  2734.29    0.5681E-05
  2737.19    0.5700E-05
  2740.08    0.5720E-05
  2742.97    0.5741E-05
  2745.86    0.5762E-05
  2748.76    0.5783E-05
  2751.65    0.5805E-05
  2754.54    0.5827E-05
  2757.43    0.5850E-05
  2760.33    0.5874E-05
  2763.22    0.5897E-05
  2766.11    0.5922E-05
  2769.00    0.5947E-05
  2771.90    0.5972E-05
  2774.79    0.5998E-05
  2777.68    0.6024E-05
  2780.58    0.6051E-05
  2783.47    0.6079E-05
  2786.36    0.6107E-05
  2789.25    0.6135E-05
  2792.15    0.6164E-05
  2795.04    0.6194E-05
  2797.93    0.6224E-05
  2800.82    0.6255E-05
  2803.72    0.6286E-05
  2806.61    0.6318E-05
  2809.50    0.6350E-05
  2812.39    0.6383E-05
  2815.29    0.6417E-05
  2818.18    0.6451E-05
  2821.07    0.6486E-05
  2823.96    0.6522E-05
  2826.86    0.6558E-05
  2829.75    0.6595E-05
  2832.64    0.6632E-05
  2835.53    0.6671E-05
  2838.43    0.6709E-05
  2841.32    0.6749E-05
  2844.21    0.6789E-05
  2847.11    0.6830E-05
  2850.00    0.6872E-05
  2852.89    0.6914E-05
  2855.78    0.6957E-05
  2858.68    0.7001E-05
  2861.57    0.7045E-05
  2864.46    0.7091E-05
  2867.35    0.7137E-05
  2870.25    0.7184E-05
  2873.14    0.7231E-05
  2876.03    0.7280E-05
  2878.92    0.7329E-05
  2881.82    0.7380E-05
  2884.71    0.7431E-05
  2887.60    0.7482E-05
  2890.49    0.7535E-05
  2893.39    0.7589E-05
  2896.28    0.7644E-05
  2899.17    0.7699E-05
  2902.06    0.7756E-05
  2904.96    0.7813E-05
  2907.85    0.7872E-05
  2910.74    0.7931E-05
  2913.64    0.7992E-05
  2916.53    0.8053E-05
  2919.42    0.8116E-05
  2922.31    0.8179E-05
  2925.21    0.8244E-05
  2928.10    0.8310E-05
  2930.99    0.8377E-05
  2933.88    0.8445E-05
  2936.78    0.8514E-05
  2939.67    0.8585E-05
  2942.56    0.8656E-05
  2945.45    0.8729E-05
  2948.35    0.8803E-05
  2951.24    0.8879E-05
  2954.13    0.8956E-05
  2957.02    0.9034E-05
  2959.92    0.9114E-05
  2962.81    0.9195E-05
  2965.70    0.9277E-05
  2968.59    0.9361E-05
  2971.49    0.9446E-05
  2974.38    0.9533E-05
  2977.27    0.9621E-05
  2980.16    0.9712E-05
  2983.06    0.9803E-05
  2985.95    0.9896E-05
  2988.84    0.9991E-05
  2991.74    0.1009E-04
  2994.63    0.1019E-04
  2997.52    0.1029E-04
  3000.41    0.1039E-04
  3003.31    0.1049E-04
  3006.20    0.1060E-04
  3009.09    0.1071E-04
  3011.98    0.1082E-04
  3014.88    0.1093E-04
  3017.77    0.1104E-04
  3020.66    0.1116E-04
  3023.55    0.1128E-04
  3026.45    0.1140E-04
  3029.34    0.1152E-04
  3032.23    0.1165E-04
  3035.12    0.1177E-04
  3038.02    0.1190E-04
  3040.91    0.1204E-04
  3043.80    0.1217E-04
  3046.69    0.1231E-04
  3049.59    0.1245E-04
  3052.48    0.1260E-04
  3055.37    0.1274E-04
  3058.27    0.1289E-04
  3061.16    0.1304E-04
  3064.05    0.1320E-04
  3066.94    0.1336E-04
  3069.84    0.1352E-04
  3072.73    0.1369E-04
  3075.62    0.1385E-04
  3078.51    0.1403E-04
  3081.41    0.1420E-04
  3084.30    0.1438E-04
  3087.19    0.1457E-04
  3090.08    0.1475E-04
  3092.98    0.1495E-04
  3095.87    0.1514E-04
  3098.76    0.1534E-04
  3101.65    0.1555E-04
  3104.55    0.1576E-04
  3107.44    0.1597E-04
  3110.33    0.1619E-04
  3113.22    0.1641E-04
  3116.12    0.1664E-04
  3119.01    0.1687E-04
  3121.90    0.1711E-04
  3124.80    0.1736E-04
  3127.69    0.1761E-04
  3130.58    0.1786E-04
  3133.47    0.1812E-04
  3136.37    0.1839E-04
  3139.26    0.1867E-04
  3142.15    0.1895E-04
  3145.04    0.1924E-04
  3147.94    0.1953E-04
  3150.83    0.1984E-04
  3153.72    0.2015E-04
  3156.61    0.2047E-04
  3159.51    0.2079E-04
  3162.40    0.2113E-04
  3165.29    0.2147E-04
  3168.18    0.2182E-04
  3171.08    0.2218E-04
  3173.97    0.2255E-04
  3176.86    0.2293E-04
  3179.75    0.2333E-04
  3182.65    0.2373E-04
  3185.54    0.2414E-04
  3188.43    0.2456E-04
  3191.33    0.2500E-04
  3194.22    0.2545E-04
  3197.11    0.2591E-04
  3200.00    0.2638E-04
  3202.90    0.2687E-04
  3205.79    0.2737E-04
  3208.68    0.2789E-04
  3211.57    0.2842E-04
  3214.47    0.2897E-04
  3217.36    0.2953E-04
  3220.25    0.3011E-04
  3223.14    0.3071E-04
  3226.04    0.3133E-04
  3228.93    0.3197E-04
  3231.82    0.3262E-04
  3234.71    0.3330E-04
  3237.61    0.3400E-04
  3240.50    0.3473E-04
  3243.39    0.3547E-04
  3246.28    0.3625E-04
  3249.18    0.3705E-04
  3252.07    0.3787E-04
  3254.96    0.3873E-04
  3257.86    0.3961E-04
  3260.75    0.4053E-04
  3263.64    0.4148E-04
  3266.53    0.4246E-04
  3269.43    0.4348E-04
  3272.32    0.4454E-04
  3275.21    0.4563E-04
  3278.10    0.4677E-04
  3281.00    0.4796E-04
  3283.89    0.4919E-04
  3286.78    0.5046E-04
  3289.67    0.5179E-04
  3292.57    0.5318E-04
  3295.46    0.5461E-04
  3298.35    0.5612E-04
  3301.24    0.5768E-04
  3304.14    0.5931E-04
  3307.03    0.6101E-04
  3309.92    0.6279E-04
  3312.81    0.6464E-04
  3315.71    0.6659E-04
  3318.60    0.6862E-04
  3321.49    0.7074E-04
  3324.39    0.7297E-04
  3327.28    0.7531E-04
  3330.17    0.7776E-04
  3333.06    0.8033E-04
  3335.96    0.8303E-04
  3338.85    0.8588E-04
  3341.74    0.8887E-04
  3344.63    0.9202E-04
  3347.53    0.9535E-04
  3350.42    0.9886E-04
  3353.31    0.1026E-03
  3356.20    0.1065E-03
  3359.10    0.1106E-03
  3361.99    0.1150E-03
  3364.88    0.1197E-03
  3367.77    0.1247E-03
  3370.67    0.1300E-03
  3373.56    0.1356E-03
  3376.45    0.1416E-03
  3379.34    0.1480E-03
  3382.24    0.1548E-03
  3385.13    0.1622E-03
  3388.02    0.1701E-03
  3390.91    0.1785E-03
  3393.81    0.1876E-03
  3396.70    0.1975E-03
  3399.59    0.2081E-03
  3402.49    0.2196E-03
  3405.38    0.2321E-03
  3408.27    0.2456E-03
  3411.16    0.2604E-03
  3414.06    0.2766E-03
  3416.95    0.2944E-03
  3419.84    0.3138E-03
  3422.73    0.3353E-03
  3425.63    0.3591E-03
  3428.52    0.3855E-03
  3431.41    0.4148E-03
  3434.30    0.4477E-03
  3437.20    0.4845E-03
  3440.09    0.5261E-03
  3442.98    0.5733E-03
  3445.87    0.6270E-03
  3448.77    0.6886E-03
  3451.66    0.7597E-03
  3454.55    0.8422E-03
  3457.44    0.9387E-03
  3460.34    0.1052E-02
  3463.23    0.1188E-02
  3466.12    0.1351E-02
  3469.02    0.1549E-02
  3471.91    0.1792E-02
  3474.80    0.2096E-02
  3477.69    0.2481E-02
  3480.59    0.2977E-02
  3483.48    0.3627E-02
  3486.37    0.4498E-02
  3489.26    0.5687E-02
  3492.16    0.7341E-02
  3495.05    0.9663E-02
  3497.94    0.1288E-01
  3500.83    0.1705E-01
  3503.73    0.2148E-01
  3506.62    0.2418E-01
  3509.51    0.2324E-01
  3512.40    0.1939E-01
  3515.30    0.1492E-01
  3518.19    0.1120E-01
  3521.08    0.8438E-02
  3523.97    0.6469E-02
  3526.87    0.5062E-02
  3529.76    0.4043E-02
  3532.65    0.3289E-02
  3535.55    0.2720E-02
  3538.44    0.2282E-02
  3541.33    0.1940E-02
  3544.22    0.1668E-02
  3547.12    0.1448E-02
  3550.01    0.1268E-02
  3552.90    0.1119E-02
  3555.79    0.9948E-03
  3558.69    0.8898E-03
  3561.58    0.8005E-03
  3564.47    0.7239E-03
  3567.36    0.6576E-03
  3570.26    0.6000E-03
