
 ------------------------------------------------------------
     normal          Raman Scattering Plot
 ------------------------------------------------------------
 Excitation wavelength  514.50 nm
 Convolution lineshape is lorentzian  
 FWHM   20.00  1/cm
 ------------------------------------------------------------
 ------------------------------------------------------------
 # of frequencies :    72
 ------------------------------------------------------------
 #  freq [ 1/cm]  S [Ang**4/amu]
 ------------------------------------------------------------
   1    33.65     6685.0878
   2    45.07  2436703.6030
   3    51.72    19406.3680
   4    70.70   896368.9027
   5    74.93    15650.6619
   6    99.19   214756.1589
   7   100.14    61106.4720
   8   129.36   245735.4285
   9   130.54    83808.3682
  10   153.91   545488.8564
  11   163.88    95494.0216
  12   164.30   304035.6685
  13   201.69    82298.7788
  14   202.19   518479.1886
  15   242.38    23175.3824
  16   242.56    19876.8781
  17   284.63    91501.2891
  18   284.83   264572.7364
  19   311.87    22594.7013
  20   327.36    69264.7451
  21   327.39   122247.2617
  22   365.73     5158.8151
  23   365.75    24211.7693
  24   422.18   268672.3232
  25   422.24    81339.8593
  26   458.64     8215.0063
  27   458.70   267833.6709
  28   466.02   394280.2980
  29   493.46   981320.8331
  30   493.50   438867.3153
  31   527.45   144008.9073
  32   527.49   100514.7313
  33   561.35   447057.1092
  34   561.36    39571.4980
  35   594.14     6371.2385
  36   594.34   780087.0300
  37   619.97   193990.5791
  38   622.99    65078.5980
  39   623.22   153165.7857
  40   643.59   518020.4536
  41   645.06 17784665.9641
  42   662.63   374473.4698
  43   663.36   329221.7119
  44   684.27     8232.5638
  45   685.21   979277.7360
  46   709.61    47251.4116
  47   709.77   293860.6207
  48   740.58   157570.6853
  49   740.65    81637.8467
  50   770.24    78937.7607
  51   781.62   177517.0911
  52   781.66   340825.0111
  53   914.69     9399.3814
  54  1053.92     5979.5434
  55  1186.70   209476.3286
  56  1310.70     5570.5836
  57  1422.83   155595.4755
  58  1519.03    29879.7891
  59  1765.98 22388222.7882
  60  1890.10    73709.6667
  61  1931.52   281818.1719
  62  1940.45    15114.6303
  63  1971.79   813614.8485
  64  2012.81  2295675.6005
  65  2041.46 25181383.4085
  66  2055.45   113601.8709
  67  2089.09    98538.9563
  68  2092.93   247864.3798
  69  2111.74    75899.6406
  70  2114.52  3710975.0852
  71  3428.68   921256.2958
  72  3433.39  1321946.4559
 ------------------------------------------------------------
   -22.82    0.1736E+05
   -19.30    0.1921E+05
   -15.78    0.2137E+05
   -12.25    0.2391E+05
    -8.73    0.2694E+05
    -5.21    0.3059E+05
    -1.68    0.3503E+05
     1.84    0.4050E+05
     5.36    0.4736E+05
     8.89    0.5610E+05
    12.41    0.6747E+05
    15.93    0.8257E+05
    19.46    0.1032E+06
    22.98    0.1321E+06
    26.50    0.1737E+06
    30.03    0.2354E+06
    33.55    0.3274E+06
    37.07    0.4609E+06
    40.60    0.6261E+06
    44.12    0.7445E+06
    47.64    0.7102E+06
    51.17    0.5637E+06
    54.69    0.4186E+06
    58.21    0.3189E+06
    61.74    0.2627E+06
    65.26    0.2381E+06
    68.78    0.2269E+06
    72.31    0.2051E+06
    75.83    0.1677E+06
    79.35    0.1303E+06
    82.88    0.1022E+06
    86.40    0.8343E+05
    89.92    0.7175E+05
    93.45    0.6527E+05
    96.97    0.6145E+05
   100.49    0.5651E+05
   104.02    0.4910E+05
   107.54    0.4170E+05
   111.06    0.3613E+05
   114.59    0.3260E+05
   118.11    0.3092E+05
   121.63    0.3096E+05
   125.15    0.3230E+05
   128.68    0.3331E+05
   132.20    0.3193E+05
   135.72    0.2895E+05
   139.25    0.2671E+05
   142.77    0.2631E+05
   146.29    0.2798E+05
   149.82    0.3123E+05
   153.34    0.3395E+05
   156.86    0.3382E+05
   160.39    0.3185E+05
   163.91    0.2912E+05
   167.43    0.2504E+05
   170.96    0.2051E+05
   174.48    0.1689E+05
   178.00    0.1446E+05
   181.53    0.1301E+05
   185.05    0.1236E+05
   188.57    0.1247E+05
   192.10    0.1341E+05
   195.62    0.1524E+05
   199.14    0.1732E+05
   202.67    0.1782E+05
   206.19    0.1575E+05
   209.71    0.1270E+05
   213.24    0.1015E+05
   216.76     8337.    
   220.28     7095.    
   223.81     6234.    
   227.33     5630.    
   230.85     5213.    
   234.38     4943.    
   237.90     4783.    
   241.42     4643.    
   244.95     4416.    
   248.47     4128.    
   251.99     3877.    
   255.52     3704.    
   259.04     3611.    
   262.56     3601.    
   266.09     3688.    
   269.61     3906.    
   273.13     4313.    
   276.66     4971.    
   280.18     5829.    
   283.70     6448.    
   287.22     6206.    
   290.75     5300.    
   294.27     4388.    
   297.79     3733.    
   301.32     3322.    
   304.84     3093.    
   308.36     2995.    
   311.89     2980.    
   315.41     3027.    
   318.93     3180.    
   322.46     3448.    
   325.98     3662.    
   329.50     3533.    
   333.03     3101.    
   336.55     2652.    
   340.07     2313.    
   343.60     2081.    
   347.12     1925.    
   350.64     1823.    
   354.17     1761.    
   357.69     1735.    
   361.21     1734.    
   364.74     1731.    
   368.26     1687.    
   371.78     1613.    
   375.31     1547.    
   378.83     1501.    
   382.35     1476.    
   385.88     1469.    
   389.40     1478.    
   392.92     1505.    
   396.45     1555.    
   399.97     1634.    
   403.49     1757.    
   407.02     1946.    
   410.54     2236.    
   414.06     2664.    
   417.59     3204.    
   421.11     3614.    
   424.63     3554.    
   428.16     3134.    
   431.68     2723.    
   435.20     2472.    
   438.73     2383.    
   442.25     2438.    
   445.77     2641.    
   449.30     3021.    
   452.82     3605.    
   456.34     4325.    
   459.86     4939.    
   463.39     5262.    
   466.91     5201.    
   470.43     4811.    
   473.96     4477.    
   477.48     4490.    
   481.00     4963.    
   484.53     5971.    
   488.05     7467.    
   491.57     8831.    
   495.10     8843.    
   498.62     7419.    
   502.14     5749.    
   505.67     4495.    
   509.19     3689.    
   512.71     3220.    
   516.24     2999.    
   519.76     2974.    
   523.28     3083.    
   526.81     3161.    
   530.33     3029.    
   533.85     2770.    
   537.38     2565.    
   540.90     2478.    
   544.42     2515.    
   547.95     2681.    
   551.47     2998.    
   554.99     3476.    
   558.52     4002.    
   562.04     4244.    
   565.56     4050.    
   569.09     3729.    
   572.61     3552.    
   576.13     3583.    
   579.66     3828.    
   583.18     4310.    
   586.70     5059.    
   590.23     6006.    
   593.75     6759.    
   597.27     6892.    
   600.80     6686.    
   604.32     6669.    
   607.84     7057.    
   611.37     7904.    
   614.89     9258.    
   618.41    0.1114E+05
   621.93    0.1355E+05
   625.46    0.1671E+05
   628.98    0.2136E+05
   632.50    0.2862E+05
   636.03    0.3968E+05
   639.55    0.5453E+05
   643.07    0.6787E+05
   646.60    0.6884E+05
   650.12    0.5658E+05
   653.64    0.4184E+05
   657.17    0.3074E+05
   660.69    0.2344E+05
   664.21    0.1842E+05
   667.74    0.1466E+05
   671.26    0.1196E+05
   674.78    0.1024E+05
   678.31     9339.    
   681.83     8940.    
   685.35     8436.    
   688.88     7391.    
   692.40     6159.    
   695.92     5171.    
   699.45     4519.    
   702.97     4154.    
   706.49     3964.    
   710.02     3739.    
   713.54     3342.    
   717.06     2893.    
   720.59     2529.    
   724.11     2280.    
   727.63     2132.    
   731.16     2076.    
   734.68     2101.    
   738.20     2150.    
   741.73     2099.    
   745.25     1912.    
   748.77     1700.    
   752.30     1544.    
   755.82     1455.    
   759.34     1430.    
   762.87     1470.    
   766.39     1574.    
   769.91     1730.    
   773.44     1929.    
   776.96     2174.    
   780.48     2343.    
   784.00     2215.    
   787.53     1850.    
   791.05     1483.    
   794.57     1209.    
   798.10     1019.    
   801.62     886.2    
   805.14     790.8    
   808.67     719.3    
   812.19     663.9    
   815.71     619.4    
   819.24     582.9    
   822.76     552.0    
   826.28     525.6    
   829.81     502.5    
   833.33     482.1    
   836.85     463.8    
   840.38     447.3    
   843.90     432.3    
   847.42     418.6    
   850.95     405.9    
   854.47     394.2    
   857.99     383.3    
   861.52     373.2    
   865.04     363.6    
   868.56     354.7    
   872.09     346.4    
   875.61     338.5    
   879.13     331.1    
   882.66     324.2    
   886.18     317.8    
   889.70     311.8    
   893.23     306.4    
   896.75     301.8    
   900.27     298.0    
   903.80     295.5    
   907.32     294.6    
   910.84     294.6    
   914.37     292.6    
   917.89     285.8    
   921.41     276.3    
   924.94     267.4    
   928.46     259.9    
   931.98     253.7    
   935.51     248.4    
   939.03     243.6    
   942.55     239.3    
   946.08     235.2    
   949.60     231.4    
   953.12     227.8    
   956.64     224.4    
   960.17     221.1    
   963.69     217.9    
   967.21     214.8    
   970.74     211.9    
   974.26     209.1    
   977.78     206.3    
   981.31     203.6    
   984.83     201.1    
   988.35     198.6    
   991.88     196.1    
   995.40     193.8    
   998.92     191.5    
  1002.45     189.3    
  1005.97     187.2    
  1009.49     185.1    
  1013.02     183.2    
  1016.54     181.3    
  1020.06     179.4    
  1023.59     177.7    
  1027.11     176.2    
  1030.63     174.8    
  1034.16     173.6    
  1037.68     172.7    
  1041.20     172.3    
  1044.73     172.6    
  1048.25     173.6    
  1051.77     174.5    
  1055.30     173.3    
  1058.82     169.7    
  1062.34     165.6    
  1065.87     162.2    
  1069.39     159.4    
  1072.91     157.2    
  1076.44     155.3    
  1079.96     153.7    
  1083.48     152.3    
  1087.01     150.9    
  1090.53     149.7    
  1094.05     148.6    
  1097.58     147.6    
  1101.10     146.7    
  1104.62     145.8    
  1108.15     145.1    
  1111.67     144.4    
  1115.19     143.9    
  1118.71     143.4    
  1122.24     143.2    
  1125.76     143.1    
  1129.28     143.2    
  1132.81     143.5    
  1136.33     144.2    
  1139.85     145.2    
  1143.38     146.8    
  1146.90     149.1    
  1150.42     152.2    
  1153.95     156.6    
  1157.47     162.9    
  1160.99     171.7    
  1164.52     184.5    
  1168.04     203.4    
  1171.56     232.1    
  1175.09     275.7    
  1178.61     340.1    
  1182.13     420.8    
  1185.66     479.1    
  1189.18     461.2    
  1192.70     385.0    
  1196.23     307.2    
  1199.75     250.2    
  1203.27     211.8    
  1206.80     186.1    
  1210.32     168.5    
  1213.84     156.0    
  1217.37     146.8    
  1220.89     139.9    
  1224.41     134.5    
  1227.94     130.2    
  1231.46     126.7    
  1234.98     123.8    
  1238.51     121.3    
  1242.03     119.2    
  1245.55     117.4    
  1249.08     115.8    
  1252.60     114.4    
  1256.12     113.1    
  1259.65     112.0    
  1263.17     111.0    
  1266.69     110.1    
  1270.22     109.2    
  1273.74     108.5    
  1277.26     107.9    
  1280.78     107.3    
  1284.31     106.8    
  1287.83     106.5    
  1291.35     106.4    
  1294.88     106.5    
  1298.40     106.9    
  1301.92     107.9    
  1305.45     109.3    
  1308.97     110.5    
  1312.49     110.1    
  1316.02     108.2    
  1319.54     106.0    
  1323.06     104.3    
  1326.59     103.1    
  1330.11     102.3    
  1333.63     101.7    
  1337.16     101.3    
  1340.68     101.0    
  1344.20     100.8    
  1347.73     100.7    
  1351.25     100.7    
  1354.77     100.8    
  1358.30     101.0    
  1361.82     101.3    
  1365.34     101.8    
  1368.87     102.4    
  1372.39     103.2    
  1375.91     104.2    
  1379.44     105.5    
  1382.96     107.2    
  1386.48     109.5    
  1390.01     112.5    
  1393.53     116.6    
  1397.05     122.2    
  1400.58     130.1    
  1404.10     141.6    
  1407.62     158.7    
  1411.15     184.6    
  1414.67     222.6    
  1418.19     270.4    
  1421.72     305.8    
  1425.24     296.8    
  1428.76     252.9    
  1432.29     207.7    
  1435.81     174.5    
  1439.33     152.4    
  1442.86     137.8    
  1446.38     128.1    
  1449.90     121.3    
  1453.42     116.6    
  1456.95     113.2    
  1460.47     110.8    
  1463.99     109.0    
  1467.52     107.8    
  1471.04     106.9    
  1474.56     106.4    
  1478.09     106.2    
  1481.61     106.3    
  1485.13     106.6    
  1488.66     107.3    
  1492.18     108.2    
  1495.70     109.7    
  1499.23     111.7    
  1502.75     114.8    
  1506.27     119.2    
  1509.80     125.7    
  1513.32     134.3    
  1516.84     142.5    
  1520.37     144.3    
  1523.89     138.6    
  1527.41     131.0    
  1530.94     125.4    
  1534.46     122.0    
  1537.98     120.1    
  1541.51     119.3    
  1545.03     119.1    
  1548.55     119.5    
  1552.08     120.1    
  1555.60     121.1    
  1559.12     122.3    
  1562.65     123.7    
  1566.17     125.2    
  1569.69     126.9    
  1573.22     128.8    
  1576.74     130.8    
  1580.26     133.0    
  1583.79     135.4    
  1587.31     138.0    
  1590.83     140.7    
  1594.36     143.6    
  1597.88     146.8    
  1601.40     150.2    
  1604.93     153.8    
  1608.45     157.7    
  1611.97     161.9    
  1615.49     166.4    
  1619.02     171.2    
  1622.54     176.4    
  1626.06     182.0    
  1629.59     188.1    
  1633.11     194.6    
  1636.63     201.8    
  1640.16     209.5    
  1643.68     217.9    
  1647.20     227.1    
  1650.73     237.1    
  1654.25     248.1    
  1657.77     260.2    
  1661.30     273.5    
  1664.82     288.2    
  1668.34     304.5    
  1671.87     322.6    
  1675.39     342.8    
  1678.91     365.5    
  1682.44     391.1    
  1685.96     420.1    
  1689.48     453.0    
  1693.01     490.7    
  1696.53     534.1    
  1700.05     584.5    
  1703.58     643.2    
  1707.10     712.4    
  1710.62     794.7    
  1714.15     893.4    
  1717.67     1013.    
  1721.19     1161.    
  1724.72     1345.    
  1728.24     1578.    
  1731.76     1879.    
  1735.29     2276.    
  1738.81     2812.    
  1742.33     3557.    
  1745.86     4622.    
  1749.38     6189.    
  1752.90     8549.    
  1756.43    0.1208E+05
  1759.95    0.1692E+05
  1763.47    0.2169E+05
  1767.00    0.2282E+05
  1770.52    0.1913E+05
  1774.04    0.1401E+05
  1777.56     9893.    
  1781.09     7082.    
  1784.61     5222.    
  1788.13     3973.    
  1791.66     3110.    
  1795.18     2497.    
  1798.70     2049.    
  1802.23     1713.    
  1805.75     1456.    
  1809.27     1255.    
  1812.80     1095.    
  1816.32     966.6    
  1819.84     861.7    
  1823.37     775.2    
  1826.89     703.2    
  1830.41     642.7    
  1833.94     591.7    
  1837.46     548.4    
  1840.98     511.4    
  1844.51     479.8    
  1848.03     452.7    
  1851.55     429.6    
  1855.08     410.0    
  1858.60     393.4    
  1862.12     379.8    
  1865.65     368.9    
  1869.17     361.0    
  1872.69     356.3    
  1876.22     355.4    
  1879.74     359.4    
  1883.26     369.0    
  1886.79     381.6    
  1890.31     387.5    
  1893.83     380.0    
  1897.36     367.6    
  1900.88     359.5    
  1904.40     358.2    
  1907.93     363.6    
  1911.45     376.0    
  1914.97     396.9    
  1918.50     429.1    
  1922.02     477.0    
  1925.54     542.0    
  1929.07     609.0    
  1932.59     638.9    
  1936.11     619.9    
  1939.64     589.1    
  1943.16     572.7    
  1946.68     576.6    
  1950.20     602.2    
  1953.73     651.4    
  1957.25     729.9    
  1960.77     847.5    
  1964.30     1014.    
  1967.82     1214.    
  1971.34     1359.    
  1974.87     1359.    
  1978.39     1278.    
  1981.91     1226.    
  1985.44     1238.    
  1988.96     1317.    
  1992.48     1464.    
  1996.01     1691.    
  1999.53     2026.    
  2003.05     2507.    
  2006.58     3163.    
  2010.10     3911.    
  2013.62     4488.    
  2017.15     4826.    
  2020.67     5294.    
  2024.19     6265.    
  2027.72     8014.    
  2031.24    0.1085E+05
  2034.76    0.1497E+05
  2038.29    0.1949E+05
  2041.81    0.2135E+05
  2045.33    0.1862E+05
  2048.86    0.1393E+05
  2052.38     9944.    
  2055.90     7171.    
  2059.43     5320.    
  2062.95     4076.    
  2066.47     3227.    
  2070.00     2640.    
  2073.52     2230.    
  2077.04     1948.    
  2080.57     1766.    
  2084.09     1669.    
  2087.61     1638.    
  2091.14     1646.    
  2094.66     1669.    
  2098.18     1739.    
  2101.71     1929.    
  2105.23     2301.    
  2108.75     2860.    
  2112.27     3393.    
  2115.80     3427.    
  2119.32     2867.    
  2122.84     2167.    
  2126.37     1615.    
  2129.89     1234.    
  2133.41     975.7    
  2136.94     796.8    
  2140.46     668.8    
  2143.98     574.1    
  2147.51     501.8    
  2151.03     445.2    
  2154.55     399.8    
  2158.08     362.6    
  2161.60     331.6    
  2165.12     305.5    
  2168.65     283.1    
  2172.17     263.7    
  2175.69     246.8    
  2179.22     231.9    
  2182.74     218.6    
  2186.26     206.8    
  2189.79     196.2    
  2193.31     186.5    
  2196.83     177.8    
  2200.36     169.8    
  2203.88     162.5    
  2207.40     155.8    
  2210.93     149.6    
  2214.45     143.9    
  2217.97     138.6    
  2221.50     133.7    
  2225.02     129.1    
  2228.54     124.8    
  2232.07     120.8    
  2235.59     117.0    
  2239.11     113.4    
  2242.64     110.1    
  2246.16     107.0    
  2249.68     104.0    
  2253.21     101.2    
  2256.73     98.51    
  2260.25     95.98    
  2263.78     93.58    
  2267.30     91.30    
  2270.82     89.13    
  2274.34     87.07    
  2277.87     85.09    
  2281.39     83.21    
  2284.91     81.41    
  2288.44     79.69    
  2291.96     78.05    
  2295.48     76.47    
  2299.01     74.95    
  2302.53     73.50    
  2306.05     72.11    
  2309.58     70.77    
  2313.10     69.48    
  2316.62     68.24    
  2320.15     67.04    
  2323.67     65.89    
  2327.19     64.78    
  2330.72     63.71    
  2334.24     62.67    
  2337.76     61.67    
  2341.29     60.71    
  2344.81     59.77    
  2348.33     58.87    
  2351.86     57.99    
  2355.38     57.15    
  2358.90     56.33    
  2362.43     55.53    
  2365.95     54.76    
  2369.47     54.01    
  2373.00     53.28    
  2376.52     52.57    
  2380.04     51.89    
  2383.57     51.22    
  2387.09     50.57    
  2390.61     49.94    
  2394.14     49.33    
  2397.66     48.73    
  2401.18     48.15    
  2404.71     47.58    
  2408.23     47.03    
  2411.75     46.49    
  2415.28     45.97    
  2418.80     45.46    
  2422.32     44.96    
  2425.85     44.47    
  2429.37     44.00    
  2432.89     43.53    
  2436.42     43.08    
  2439.94     42.63    
  2443.46     42.20    
  2446.98     41.78    
  2450.51     41.36    
  2454.03     40.96    
  2457.55     40.56    
  2461.08     40.17    
  2464.60     39.79    
  2468.12     39.42    
  2471.65     39.06    
  2475.17     38.70    
  2478.69     38.35    
  2482.22     38.01    
  2485.74     37.68    
  2489.26     37.35    
  2492.79     37.02    
  2496.31     36.71    
  2499.83     36.40    
  2503.36     36.09    
  2506.88     35.80    
  2510.40     35.50    
  2513.93     35.21    
  2517.45     34.93    
  2520.97     34.65    
  2524.50     34.38    
  2528.02     34.11    
  2531.54     33.85    
  2535.07     33.59    
  2538.59     33.34    
  2542.11     33.09    
  2545.64     32.84    
  2549.16     32.60    
  2552.68     32.36    
  2556.21     32.13    
  2559.73     31.90    
  2563.25     31.67    
  2566.78     31.45    
  2570.30     31.23    
  2573.82     31.02    
  2577.35     30.80    
  2580.87     30.59    
  2584.39     30.39    
  2587.92     30.18    
  2591.44     29.99    
  2594.96     29.79    
  2598.49     29.59    
  2602.01     29.40    
  2605.53     29.21    
  2609.05     29.03    
  2612.58     28.85    
  2616.10     28.67    
  2619.62     28.49    
  2623.15     28.31    
  2626.67     28.14    
  2630.19     27.97    
  2633.72     27.80    
  2637.24     27.63    
  2640.76     27.47    
  2644.29     27.31    
  2647.81     27.15    
  2651.33     26.99    
  2654.86     26.83    
  2658.38     26.68    
  2661.90     26.53    
  2665.43     26.38    
  2668.95     26.23    
  2672.47     26.09    
  2676.00     25.94    
  2679.52     25.80    
  2683.04     25.66    
  2686.57     25.52    
  2690.09     25.38    
  2693.61     25.25    
  2697.14     25.11    
  2700.66     24.98    
  2704.18     24.85    
  2707.71     24.72    
  2711.23     24.59    
  2714.75     24.47    
  2718.28     24.34    
  2721.80     24.22    
  2725.32     24.10    
  2728.85     23.98    
  2732.37     23.86    
  2735.89     23.74    
  2739.42     23.62    
  2742.94     23.51    
  2746.46     23.39    
  2749.99     23.28    
  2753.51     23.17    
  2757.03     23.06    
  2760.56     22.95    
  2764.08     22.84    
  2767.60     22.73    
  2771.13     22.63    
  2774.65     22.52    
  2778.17     22.42    
  2781.69     22.32    
  2785.22     22.22    
  2788.74     22.11    
  2792.26     22.02    
  2795.79     21.92    
  2799.31     21.82    
  2802.83     21.72    
  2806.36     21.63    
  2809.88     21.53    
  2813.40     21.44    
  2816.93     21.35    
  2820.45     21.26    
  2823.97     21.16    
  2827.50     21.07    
  2831.02     20.99    
  2834.54     20.90    
  2838.07     20.81    
  2841.59     20.72    
  2845.11     20.64    
  2848.64     20.55    
  2852.16     20.47    
  2855.68     20.39    
  2859.21     20.30    
  2862.73     20.22    
  2866.25     20.14    
  2869.78     20.06    
  2873.30     19.98    
  2876.82     19.90    
  2880.35     19.83    
  2883.87     19.75    
  2887.39     19.67    
  2890.92     19.60    
  2894.44     19.52    
  2897.96     19.45    
  2901.49     19.37    
  2905.01     19.30    
  2908.53     19.23    
  2912.06     19.16    
  2915.58     19.09    
  2919.10     19.02    
  2922.63     18.95    
  2926.15     18.88    
  2929.67     18.81    
  2933.20     18.74    
  2936.72     18.68    
  2940.24     18.61    
  2943.76     18.55    
  2947.29     18.48    
  2950.81     18.42    
  2954.33     18.35    
  2957.86     18.29    
  2961.38     18.23    
  2964.90     18.17    
  2968.43     18.11    
  2971.95     18.05    
  2975.47     17.99    
  2979.00     17.93    
  2982.52     17.87    
  2986.04     17.81    
  2989.57     17.75    
  2993.09     17.70    
  2996.61     17.64    
  3000.14     17.58    
  3003.66     17.53    
  3007.18     17.48    
  3010.71     17.42    
  3014.23     17.37    
  3017.75     17.32    
  3021.28     17.26    
  3024.80     17.21    
  3028.32     17.16    
  3031.85     17.11    
  3035.37     17.06    
  3038.89     17.01    
  3042.42     16.97    
  3045.94     16.92    
  3049.46     16.87    
  3052.99     16.83    
  3056.51     16.78    
  3060.03     16.74    
  3063.56     16.69    
  3067.08     16.65    
  3070.60     16.61    
  3074.13     16.56    
  3077.65     16.52    
  3081.17     16.48    
  3084.70     16.44    
  3088.22     16.40    
  3091.74     16.36    
  3095.27     16.33    
  3098.79     16.29    
  3102.31     16.25    
  3105.83     16.22    
  3109.36     16.18    
  3112.88     16.15    
  3116.40     16.12    
  3119.93     16.09    
  3123.45     16.06    
  3126.97     16.03    
  3130.50     16.00    
  3134.02     15.97    
  3137.54     15.94    
  3141.07     15.92    
  3144.59     15.89    
  3148.11     15.87    
  3151.64     15.85    
  3155.16     15.83    
  3158.68     15.81    
  3162.21     15.79    
  3165.73     15.77    
  3169.25     15.75    
  3172.78     15.74    
  3176.30     15.73    
  3179.82     15.72    
  3183.35     15.71    
  3186.87     15.70    
  3190.39     15.70    
  3193.92     15.69    
  3197.44     15.69    
  3200.96     15.69    
  3204.49     15.70    
  3208.01     15.70    
  3211.53     15.71    
  3215.06     15.72    
  3218.58     15.74    
  3222.10     15.75    
  3225.63     15.77    
  3229.15     15.80    
  3232.67     15.83    
  3236.20     15.86    
  3239.72     15.89    
  3243.24     15.93    
  3246.77     15.98    
  3250.29     16.03    
  3253.81     16.09    
  3257.34     16.15    
  3260.86     16.22    
  3264.38     16.30    
  3267.91     16.38    
  3271.43     16.47    
  3274.95     16.58    
  3278.47     16.69    
  3282.00     16.81    
  3285.52     16.94    
  3289.04     17.09    
  3292.57     17.26    
  3296.09     17.43    
  3299.61     17.63    
  3303.14     17.84    
  3306.66     18.08    
  3310.18     18.34    
  3313.71     18.63    
  3317.23     18.95    
  3320.75     19.30    
  3324.28     19.70    
  3327.80     20.13    
  3331.32     20.62    
  3334.85     21.17    
  3338.37     21.78    
  3341.89     22.46    
  3345.42     23.24    
  3348.94     24.12    
  3352.46     25.13    
  3355.99     26.28    
  3359.51     27.61    
  3363.03     29.15    
  3366.56     30.94    
  3370.08     33.05    
  3373.60     35.55    
  3377.13     38.55    
  3380.65     42.16    
  3384.17     46.58    
  3387.70     52.06    
  3391.22     58.95    
  3394.74     67.76    
  3398.27     79.26    
  3401.79     94.61    
  3405.31     115.6    
  3408.84     145.2    
  3412.36     188.0    
  3415.88     251.7    
  3419.41     347.0    
  3422.93     482.3    
  3426.45     641.0    
  3429.98     754.4    
  3433.50     747.0    
  3437.02     619.7    
  3440.54     458.3    
  3444.07     328.4    
  3447.59     238.9    
  3451.11     179.3    
  3454.64     139.1    
  3458.16     111.2    
  3461.68     91.21    
  3465.21     76.55    
  3468.73     65.50    
  3472.25     56.98    
  3475.78     50.29    
  3479.30     44.95    
  3482.82     40.61    
  3486.35     37.05    
  3489.87     34.08    
  3493.39     31.59    
  3496.92     29.47    
