
 ------------------------------------------------------------
     normal          Raman Scattering Plot
 ------------------------------------------------------------
 Excitation wavelength  514.50 nm
 Convolution lineshape is lorentzian  
 FWHM   20.00  1/cm
 ------------------------------------------------------------
 ------------------------------------------------------------
 # of frequencies :    24
 ------------------------------------------------------------
 #  freq [ 1/cm]  S [Ang**4/amu]
 ------------------------------------------------------------
   1    81.00        0.0031
   2   181.09        1.9063
   3   181.09        1.8785
   4   307.51        0.0089
   5   310.65        0.0000
   6   471.45        1.0643
   7   471.46        1.0036
   8   473.67        4.3203
   9   574.82        0.0000
  10   576.18        0.0003
  11   636.26        7.2229
  12   636.27        7.4334
  13   660.33        0.0006
  14   661.62        0.0019
  15   680.94       41.8687
  16   680.97       41.5351
  17   917.66        0.0000
  18  1311.86        6.9998
  19  1987.69        0.0006
  20  2073.79      738.0292
  21  2166.04     1618.1754
  22  2192.57        0.0004
  23  3437.30       94.6158
  24  3447.27        0.0132
 ------------------------------------------------------------
    24.49    0.5262E-03
    27.98    0.5459E-03
    31.47    0.5670E-03
    34.96    0.5899E-03
    38.45    0.6147E-03
    41.94    0.6416E-03
    45.43    0.6712E-03
    48.92    0.7038E-03
    52.41    0.7402E-03
    55.90    0.7813E-03
    59.39    0.8286E-03
    62.88    0.8843E-03
    66.37    0.9520E-03
    69.86    0.1037E-02
    73.35    0.1143E-02
    76.84    0.1265E-02
    80.33    0.1370E-02
    83.82    0.1415E-02
    87.31    0.1424E-02
    90.80    0.1444E-02
    94.29    0.1491E-02
    97.78    0.1564E-02
   101.27    0.1660E-02
   104.76    0.1779E-02
   108.25    0.1921E-02
   111.74    0.2088E-02
   115.23    0.2284E-02
   118.71    0.2515E-02
   122.20    0.2787E-02
   125.69    0.3112E-02
   129.18    0.3501E-02
   132.67    0.3973E-02
   136.16    0.4553E-02
   139.65    0.5275E-02
   143.14    0.6188E-02
   146.63    0.7362E-02
   150.12    0.8905E-02
   153.61    0.1098E-01
   157.10    0.1384E-01
   160.59    0.1791E-01
   164.08    0.2386E-01
   167.57    0.3277E-01
   171.06    0.4611E-01
   174.55    0.6469E-01
   178.04    0.8442E-01
   181.53    0.9206E-01
   185.02    0.7992E-01
   188.51    0.5956E-01
   192.00    0.4224E-01
   195.49    0.3018E-01
   198.98    0.2216E-01
   202.47    0.1677E-01
   205.96    0.1307E-01
   209.45    0.1044E-01
   212.94    0.8527E-02
   216.43    0.7096E-02
   219.92    0.6003E-02
   223.41    0.5150E-02
   226.90    0.4474E-02
   230.39    0.3930E-02
   233.88    0.3486E-02
   237.37    0.3120E-02
   240.86    0.2815E-02
   244.35    0.2558E-02
   247.84    0.2341E-02
   251.33    0.2155E-02
   254.82    0.1995E-02
   258.31    0.1857E-02
   261.79    0.1738E-02
   265.28    0.1633E-02
   268.77    0.1542E-02
   272.26    0.1463E-02
   275.75    0.1393E-02
   279.24    0.1333E-02
   282.73    0.1280E-02
   286.22    0.1235E-02
   289.71    0.1197E-02
   293.20    0.1167E-02
   296.69    0.1146E-02
   300.18    0.1134E-02
   303.67    0.1129E-02
   307.16    0.1118E-02
   310.65    0.1090E-02
   314.14    0.1054E-02
   317.63    0.1021E-02
   321.12    0.9963E-03
   324.61    0.9784E-03
   328.10    0.9657E-03
   331.59    0.9571E-03
   335.08    0.9518E-03
   338.57    0.9495E-03
   342.06    0.9497E-03
   345.55    0.9525E-03
   349.04    0.9576E-03
   352.53    0.9651E-03
   356.02    0.9749E-03
   359.51    0.9873E-03
   363.00    0.1002E-02
   366.49    0.1020E-02
   369.98    0.1040E-02
   373.47    0.1064E-02
   376.96    0.1091E-02
   380.45    0.1122E-02
   383.94    0.1158E-02
   387.43    0.1198E-02
   390.92    0.1243E-02
   394.41    0.1295E-02
   397.90    0.1355E-02
   401.38    0.1423E-02
   404.87    0.1501E-02
   408.36    0.1592E-02
   411.85    0.1698E-02
   415.34    0.1822E-02
   418.83    0.1969E-02
   422.32    0.2144E-02
   425.81    0.2356E-02
   429.30    0.2616E-02
   432.79    0.2939E-02
   436.28    0.3348E-02
   439.77    0.3874E-02
   443.26    0.4569E-02
   446.75    0.5507E-02
   450.24    0.6812E-02
   453.73    0.8680E-02
   457.22    0.1143E-01
   460.71    0.1555E-01
   464.20    0.2159E-01
   467.69    0.2933E-01
   471.18    0.3582E-01
   474.67    0.3594E-01
   478.16    0.2957E-01
   481.65    0.2185E-01
   485.14    0.1583E-01
   488.63    0.1174E-01
   492.12    0.9037E-02
   495.61    0.7223E-02
   499.10    0.5977E-02
   502.59    0.5102E-02
   506.08    0.4474E-02
   509.57    0.4017E-02
   513.06    0.3681E-02
   516.55    0.3435E-02
   520.04    0.3257E-02
   523.53    0.3131E-02
   527.02    0.3047E-02
   530.51    0.2997E-02
   534.00    0.2977E-02
   537.49    0.2982E-02
   540.98    0.3011E-02
   544.46    0.3062E-02
   547.95    0.3134E-02
   551.44    0.3227E-02
   554.93    0.3342E-02
   558.42    0.3480E-02
   561.91    0.3642E-02
   565.40    0.3832E-02
   568.89    0.4053E-02
   572.38    0.4308E-02
   575.87    0.4604E-02
   579.36    0.4947E-02
   582.85    0.5347E-02
   586.34    0.5816E-02
   589.83    0.6372E-02
   593.32    0.7035E-02
   596.81    0.7836E-02
   600.30    0.8818E-02
   603.79    0.1004E-01
   607.28    0.1160E-01
   610.77    0.1363E-01
   614.26    0.1636E-01
   617.75    0.2013E-01
   621.24    0.2551E-01
   624.73    0.3335E-01
   628.22    0.4452E-01
   631.71    0.5835E-01
   635.20    0.6912E-01
   638.69    0.6881E-01
   642.18    0.6011E-01
   645.67    0.5182E-01
   649.16    0.4769E-01
   652.65    0.4797E-01
   656.14    0.5249E-01
   659.63    0.6171E-01
   663.12    0.7710E-01
   666.61    0.1015    
   670.10    0.1391    
   673.59    0.1938    
   677.08    0.2579    
   680.57    0.2953    
   684.05    0.2697    
   687.54    0.2064    
   691.03    0.1473    
   694.52    0.1049    
   698.01    0.7653E-01
   701.50    0.5756E-01
   704.99    0.4456E-01
   708.48    0.3539E-01
   711.97    0.2873E-01
   715.46    0.2376E-01
   718.95    0.1997E-01
   722.44    0.1701E-01
   725.93    0.1467E-01
   729.42    0.1278E-01
   732.91    0.1124E-01
   736.40    0.9960E-02
   739.89    0.8892E-02
   743.38    0.7989E-02
   746.87    0.7220E-02
   750.36    0.6559E-02
   753.85    0.5987E-02
   757.34    0.5488E-02
   760.83    0.5051E-02
   764.32    0.4666E-02
   767.81    0.4325E-02
   771.30    0.4021E-02
   774.79    0.3749E-02
   778.28    0.3505E-02
   781.77    0.3286E-02
   785.26    0.3087E-02
   788.75    0.2906E-02
   792.24    0.2742E-02
   795.73    0.2593E-02
   799.22    0.2455E-02
   802.71    0.2330E-02
   806.20    0.2214E-02
   809.69    0.2107E-02
   813.18    0.2009E-02
   816.67    0.1918E-02
   820.16    0.1833E-02
   823.65    0.1755E-02
   827.13    0.1681E-02
   830.62    0.1613E-02
   834.11    0.1549E-02
   837.60    0.1490E-02
   841.09    0.1434E-02
   844.58    0.1382E-02
   848.07    0.1333E-02
   851.56    0.1287E-02
   855.05    0.1243E-02
   858.54    0.1202E-02
   862.03    0.1164E-02
   865.52    0.1127E-02
   869.01    0.1093E-02
   872.50    0.1060E-02
   875.99    0.1029E-02
   879.48    0.9997E-03
   882.97    0.9719E-03
   886.46    0.9456E-03
   889.95    0.9205E-03
   893.44    0.8966E-03
   896.93    0.8740E-03
   900.42    0.8524E-03
   903.91    0.8318E-03
   907.40    0.8122E-03
   910.89    0.7935E-03
   914.38    0.7756E-03
   917.87    0.7585E-03
   921.36    0.7422E-03
   924.85    0.7266E-03
   928.34    0.7117E-03
   931.83    0.6975E-03
   935.32    0.6838E-03
   938.81    0.6707E-03
   942.30    0.6582E-03
   945.79    0.6462E-03
   949.28    0.6347E-03
   952.77    0.6236E-03
   956.26    0.6131E-03
   959.75    0.6029E-03
   963.24    0.5931E-03
   966.72    0.5838E-03
   970.21    0.5748E-03
   973.70    0.5662E-03
   977.19    0.5579E-03
   980.68    0.5499E-03
   984.17    0.5423E-03
   987.66    0.5349E-03
   991.15    0.5279E-03
   994.64    0.5211E-03
   998.13    0.5145E-03
  1001.62    0.5083E-03
  1005.11    0.5023E-03
  1008.60    0.4965E-03
  1012.09    0.4909E-03
  1015.58    0.4856E-03
  1019.07    0.4805E-03
  1022.56    0.4756E-03
  1026.05    0.4709E-03
  1029.54    0.4664E-03
  1033.03    0.4620E-03
  1036.52    0.4579E-03
  1040.01    0.4539E-03
  1043.50    0.4501E-03
  1046.99    0.4465E-03
  1050.48    0.4430E-03
  1053.97    0.4397E-03
  1057.46    0.4365E-03
  1060.95    0.4335E-03
  1064.44    0.4306E-03
  1067.93    0.4279E-03
  1071.42    0.4254E-03
  1074.91    0.4229E-03
  1078.40    0.4206E-03
  1081.89    0.4185E-03
  1085.38    0.4165E-03
  1088.87    0.4146E-03
  1092.36    0.4128E-03
  1095.85    0.4112E-03
  1099.34    0.4097E-03
  1102.83    0.4083E-03
  1106.32    0.4071E-03
  1109.80    0.4060E-03
  1113.29    0.4050E-03
  1116.78    0.4042E-03
  1120.27    0.4035E-03
  1123.76    0.4030E-03
  1127.25    0.4025E-03
  1130.74    0.4023E-03
  1134.23    0.4021E-03
  1137.72    0.4022E-03
  1141.21    0.4023E-03
  1144.70    0.4027E-03
  1148.19    0.4032E-03
  1151.68    0.4039E-03
  1155.17    0.4047E-03
  1158.66    0.4058E-03
  1162.15    0.4071E-03
  1165.64    0.4086E-03
  1169.13    0.4103E-03
  1172.62    0.4122E-03
  1176.11    0.4144E-03
  1179.60    0.4169E-03
  1183.09    0.4198E-03
  1186.58    0.4229E-03
  1190.07    0.4264E-03
  1193.56    0.4304E-03
  1197.05    0.4347E-03
  1200.54    0.4396E-03
  1204.03    0.4450E-03
  1207.52    0.4510E-03
  1211.01    0.4578E-03
  1214.50    0.4653E-03
  1217.99    0.4737E-03
  1221.48    0.4831E-03
  1224.97    0.4937E-03
  1228.46    0.5057E-03
  1231.95    0.5192E-03
  1235.44    0.5347E-03
  1238.93    0.5524E-03
  1242.42    0.5727E-03
  1245.91    0.5962E-03
  1249.39    0.6237E-03
  1252.88    0.6559E-03
  1256.37    0.6941E-03
  1259.86    0.7399E-03
  1263.35    0.7952E-03
  1266.84    0.8630E-03
  1270.33    0.9472E-03
  1273.82    0.1054E-02
  1277.31    0.1190E-02
  1280.80    0.1369E-02
  1284.29    0.1610E-02
  1287.78    0.1942E-02
  1291.27    0.2412E-02
  1294.76    0.3099E-02
  1298.25    0.4128E-02
  1301.74    0.5668E-02
  1305.23    0.7820E-02
  1308.72    0.1013E-01
  1312.21    0.1108E-01
  1315.70    0.9713E-02
  1319.19    0.7346E-02
  1322.68    0.5313E-02
  1326.17    0.3894E-02
  1329.66    0.2950E-02
  1333.15    0.2318E-02
  1336.64    0.1883E-02
  1340.13    0.1576E-02
  1343.62    0.1352E-02
  1347.11    0.1186E-02
  1350.60    0.1059E-02
  1354.09    0.9602E-03
  1357.58    0.8824E-03
  1361.07    0.8200E-03
  1364.56    0.7695E-03
  1368.05    0.7281E-03
  1371.54    0.6939E-03
  1375.03    0.6653E-03
  1378.52    0.6414E-03
  1382.01    0.6213E-03
  1385.50    0.6042E-03
  1388.99    0.5897E-03
  1392.47    0.5773E-03
  1395.96    0.5668E-03
  1399.45    0.5578E-03
  1402.94    0.5502E-03
  1406.43    0.5437E-03
  1409.92    0.5382E-03
  1413.41    0.5336E-03
  1416.90    0.5298E-03
  1420.39    0.5267E-03
  1423.88    0.5242E-03
  1427.37    0.5222E-03
  1430.86    0.5207E-03
  1434.35    0.5197E-03
  1437.84    0.5190E-03
  1441.33    0.5188E-03
  1444.82    0.5189E-03
  1448.31    0.5193E-03
  1451.80    0.5199E-03
  1455.29    0.5209E-03
  1458.78    0.5221E-03
  1462.27    0.5236E-03
  1465.76    0.5253E-03
  1469.25    0.5272E-03
  1472.74    0.5293E-03
  1476.23    0.5316E-03
  1479.72    0.5341E-03
  1483.21    0.5367E-03
  1486.70    0.5396E-03
  1490.19    0.5426E-03
  1493.68    0.5458E-03
  1497.17    0.5491E-03
  1500.66    0.5526E-03
  1504.15    0.5562E-03
  1507.64    0.5600E-03
  1511.13    0.5640E-03
  1514.62    0.5681E-03
  1518.11    0.5723E-03
  1521.60    0.5767E-03
  1525.09    0.5812E-03
  1528.58    0.5859E-03
  1532.06    0.5907E-03
  1535.55    0.5957E-03
  1539.04    0.6008E-03
  1542.53    0.6060E-03
  1546.02    0.6114E-03
  1549.51    0.6170E-03
  1553.00    0.6227E-03
  1556.49    0.6285E-03
  1559.98    0.6345E-03
  1563.47    0.6407E-03
  1566.96    0.6470E-03
  1570.45    0.6535E-03
  1573.94    0.6601E-03
  1577.43    0.6669E-03
  1580.92    0.6739E-03
  1584.41    0.6810E-03
  1587.90    0.6883E-03
  1591.39    0.6958E-03
  1594.88    0.7035E-03
  1598.37    0.7114E-03
  1601.86    0.7194E-03
  1605.35    0.7276E-03
  1608.84    0.7361E-03
  1612.33    0.7447E-03
  1615.82    0.7535E-03
  1619.31    0.7626E-03
  1622.80    0.7719E-03
  1626.29    0.7813E-03
  1629.78    0.7911E-03
  1633.27    0.8010E-03
  1636.76    0.8112E-03
  1640.25    0.8216E-03
  1643.74    0.8323E-03
  1647.23    0.8432E-03
  1650.72    0.8545E-03
  1654.21    0.8659E-03
  1657.70    0.8777E-03
  1661.19    0.8898E-03
  1664.68    0.9021E-03
  1668.17    0.9148E-03
  1671.66    0.9277E-03
  1675.14    0.9410E-03
  1678.63    0.9547E-03
  1682.12    0.9687E-03
  1685.61    0.9830E-03
  1689.10    0.9977E-03
  1692.59    0.1013E-02
  1696.08    0.1028E-02
  1699.57    0.1044E-02
  1703.06    0.1060E-02
  1706.55    0.1077E-02
  1710.04    0.1094E-02
  1713.53    0.1112E-02
  1717.02    0.1130E-02
  1720.51    0.1149E-02
  1724.00    0.1168E-02
  1727.49    0.1188E-02
  1730.98    0.1208E-02
  1734.47    0.1229E-02
  1737.96    0.1250E-02
  1741.45    0.1272E-02
  1744.94    0.1295E-02
  1748.43    0.1318E-02
  1751.92    0.1342E-02
  1755.41    0.1367E-02
  1758.90    0.1392E-02
  1762.39    0.1419E-02
  1765.88    0.1446E-02
  1769.37    0.1474E-02
  1772.86    0.1502E-02
  1776.35    0.1532E-02
  1779.84    0.1563E-02
  1783.33    0.1594E-02
  1786.82    0.1627E-02
  1790.31    0.1661E-02
  1793.80    0.1696E-02
  1797.29    0.1732E-02
  1800.78    0.1769E-02
  1804.27    0.1808E-02
  1807.76    0.1848E-02
  1811.25    0.1889E-02
  1814.73    0.1932E-02
  1818.22    0.1977E-02
  1821.71    0.2023E-02
  1825.20    0.2071E-02
  1828.69    0.2120E-02
  1832.18    0.2172E-02
  1835.67    0.2225E-02
  1839.16    0.2281E-02
  1842.65    0.2339E-02
  1846.14    0.2399E-02
  1849.63    0.2462E-02
  1853.12    0.2527E-02
  1856.61    0.2596E-02
  1860.10    0.2667E-02
  1863.59    0.2741E-02
  1867.08    0.2818E-02
  1870.57    0.2900E-02
  1874.06    0.2984E-02
  1877.55    0.3073E-02
  1881.04    0.3166E-02
  1884.53    0.3264E-02
  1888.02    0.3366E-02
  1891.51    0.3474E-02
  1895.00    0.3587E-02
  1898.49    0.3706E-02
  1901.98    0.3831E-02
  1905.47    0.3963E-02
  1908.96    0.4103E-02
  1912.45    0.4250E-02
  1915.94    0.4406E-02
  1919.43    0.4571E-02
  1922.92    0.4747E-02
  1926.41    0.4933E-02
  1929.90    0.5131E-02
  1933.39    0.5343E-02
  1936.88    0.5568E-02
  1940.37    0.5809E-02
  1943.86    0.6067E-02
  1947.35    0.6344E-02
  1950.84    0.6642E-02
  1954.33    0.6962E-02
  1957.81    0.7308E-02
  1961.30    0.7683E-02
  1964.79    0.8090E-02
  1968.28    0.8532E-02
  1971.77    0.9015E-02
  1975.26    0.9543E-02
  1978.75    0.1012E-01
  1982.24    0.1076E-01
  1985.73    0.1147E-01
  1989.22    0.1226E-01
  1992.71    0.1313E-01
  1996.20    0.1412E-01
  1999.69    0.1523E-01
  2003.18    0.1649E-01
  2006.67    0.1793E-01
  2010.16    0.1958E-01
  2013.65    0.2150E-01
  2017.14    0.2374E-01
  2020.63    0.2639E-01
  2024.12    0.2955E-01
  2027.61    0.3337E-01
  2031.10    0.3804E-01
  2034.59    0.4386E-01
  2038.08    0.5124E-01
  2041.57    0.6077E-01
  2045.06    0.7337E-01
  2048.55    0.9047E-01
  2052.04    0.1144    
  2055.53    0.1487    
  2059.02    0.1996    
  2062.51    0.2760    
  2066.00    0.3863    
  2069.49    0.5204    
  2072.98    0.6113    
  2076.47    0.5761    
  2079.96    0.4519    
  2083.45    0.3289    
  2086.94    0.2397    
  2090.43    0.1808    
  2093.92    0.1423    
  2097.40    0.1171    
  2100.89    0.1005    
  2104.38    0.8969E-01
  2107.87    0.8312E-01
  2111.36    0.7976E-01
  2114.85    0.7908E-01
  2118.34    0.8085E-01
  2121.83    0.8510E-01
  2125.32    0.9209E-01
  2128.81    0.1024    
  2132.30    0.1168    
  2135.79    0.1369    
  2139.28    0.1651    
  2142.77    0.2049    
  2146.26    0.2627    
  2149.75    0.3483    
  2153.24    0.4775    
  2156.73    0.6701    
  2160.22    0.9304    
  2163.71     1.179    
  2167.20     1.226    
  2170.69     1.022    
  2174.18    0.7491    
  2177.67    0.5308    
  2181.16    0.3812    
  2184.65    0.2817    
  2188.14    0.2146    
  2191.63    0.1680    
  2195.12    0.1347    
  2198.61    0.1103    
  2202.10    0.9189E-01
  2205.59    0.7771E-01
  2209.08    0.6657E-01
  2212.57    0.5767E-01
  2216.06    0.5046E-01
  2219.55    0.4453E-01
  2223.04    0.3960E-01
  2226.53    0.3545E-01
  2230.02    0.3194E-01
  2233.51    0.2893E-01
  2237.00    0.2633E-01
  2240.48    0.2407E-01
  2243.97    0.2210E-01
  2247.46    0.2036E-01
  2250.95    0.1883E-01
  2254.44    0.1746E-01
  2257.93    0.1625E-01
  2261.42    0.1515E-01
  2264.91    0.1417E-01
  2268.40    0.1328E-01
  2271.89    0.1248E-01
  2275.38    0.1174E-01
  2278.87    0.1107E-01
  2282.36    0.1046E-01
  2285.85    0.9900E-02
  2289.34    0.9383E-02
  2292.83    0.8907E-02
  2296.32    0.8467E-02
  2299.81    0.8059E-02
  2303.30    0.7681E-02
  2306.79    0.7329E-02
  2310.28    0.7002E-02
  2313.77    0.6696E-02
  2317.26    0.6410E-02
  2320.75    0.6143E-02
  2324.24    0.5892E-02
  2327.73    0.5657E-02
  2331.22    0.5436E-02
  2334.71    0.5228E-02
  2338.20    0.5032E-02
  2341.69    0.4847E-02
  2345.18    0.4672E-02
  2348.67    0.4506E-02
  2352.16    0.4350E-02
  2355.65    0.4201E-02
  2359.14    0.4060E-02
  2362.63    0.3927E-02
  2366.12    0.3800E-02
  2369.61    0.3679E-02
  2373.10    0.3564E-02
  2376.59    0.3454E-02
  2380.07    0.3349E-02
  2383.56    0.3250E-02
  2387.05    0.3154E-02
  2390.54    0.3063E-02
  2394.03    0.2976E-02
  2397.52    0.2893E-02
  2401.01    0.2813E-02
  2404.50    0.2736E-02
  2407.99    0.2663E-02
  2411.48    0.2592E-02
  2414.97    0.2524E-02
  2418.46    0.2460E-02
  2421.95    0.2397E-02
  2425.44    0.2337E-02
  2428.93    0.2279E-02
  2432.42    0.2224E-02
  2435.91    0.2170E-02
  2439.40    0.2118E-02
  2442.89    0.2069E-02
  2446.38    0.2020E-02
  2449.87    0.1974E-02
  2453.36    0.1929E-02
  2456.85    0.1886E-02
  2460.34    0.1844E-02
  2463.83    0.1804E-02
  2467.32    0.1765E-02
  2470.81    0.1727E-02
  2474.30    0.1691E-02
  2477.79    0.1656E-02
  2481.28    0.1621E-02
  2484.77    0.1588E-02
  2488.26    0.1556E-02
  2491.75    0.1525E-02
  2495.24    0.1495E-02
  2498.73    0.1465E-02
  2502.22    0.1437E-02
  2505.71    0.1409E-02
  2509.20    0.1383E-02
  2512.69    0.1357E-02
  2516.18    0.1331E-02
  2519.67    0.1307E-02
  2523.15    0.1283E-02
  2526.64    0.1260E-02
  2530.13    0.1237E-02
  2533.62    0.1215E-02
  2537.11    0.1194E-02
  2540.60    0.1173E-02
  2544.09    0.1153E-02
  2547.58    0.1133E-02
  2551.07    0.1114E-02
  2554.56    0.1095E-02
  2558.05    0.1077E-02
  2561.54    0.1059E-02
  2565.03    0.1042E-02
  2568.52    0.1025E-02
  2572.01    0.1008E-02
  2575.50    0.9923E-03
  2578.99    0.9766E-03
  2582.48    0.9613E-03
  2585.97    0.9464E-03
  2589.46    0.9318E-03
  2592.95    0.9175E-03
  2596.44    0.9036E-03
  2599.93    0.8901E-03
  2603.42    0.8768E-03
  2606.91    0.8638E-03
  2610.40    0.8511E-03
  2613.89    0.8387E-03
  2617.38    0.8266E-03
  2620.87    0.8148E-03
  2624.36    0.8032E-03
  2627.85    0.7919E-03
  2631.34    0.7808E-03
  2634.83    0.7699E-03
  2638.32    0.7593E-03
  2641.81    0.7489E-03
  2645.30    0.7387E-03
  2648.79    0.7288E-03
  2652.28    0.7190E-03
  2655.77    0.7095E-03
  2659.26    0.7001E-03
  2662.74    0.6910E-03
  2666.23    0.6820E-03
  2669.72    0.6732E-03
  2673.21    0.6646E-03
  2676.70    0.6561E-03
  2680.19    0.6478E-03
  2683.68    0.6397E-03
  2687.17    0.6317E-03
  2690.66    0.6239E-03
  2694.15    0.6163E-03
  2697.64    0.6087E-03
  2701.13    0.6014E-03
  2704.62    0.5941E-03
  2708.11    0.5870E-03
  2711.60    0.5801E-03
  2715.09    0.5732E-03
  2718.58    0.5665E-03
  2722.07    0.5599E-03
  2725.56    0.5535E-03
  2729.05    0.5471E-03
  2732.54    0.5409E-03
  2736.03    0.5348E-03
  2739.52    0.5288E-03
  2743.01    0.5229E-03
  2746.50    0.5171E-03
  2749.99    0.5114E-03
  2753.48    0.5058E-03
  2756.97    0.5003E-03
  2760.46    0.4949E-03
  2763.95    0.4896E-03
  2767.44    0.4843E-03
  2770.93    0.4792E-03
  2774.42    0.4742E-03
  2777.91    0.4692E-03
  2781.40    0.4643E-03
  2784.89    0.4595E-03
  2788.38    0.4548E-03
  2791.87    0.4502E-03
  2795.36    0.4456E-03
  2798.85    0.4412E-03
  2802.33    0.4368E-03
  2805.82    0.4324E-03
  2809.31    0.4282E-03
  2812.80    0.4240E-03
  2816.29    0.4198E-03
  2819.78    0.4158E-03
  2823.27    0.4118E-03
  2826.76    0.4078E-03
  2830.25    0.4040E-03
  2833.74    0.4002E-03
  2837.23    0.3964E-03
  2840.72    0.3927E-03
  2844.21    0.3891E-03
  2847.70    0.3855E-03
  2851.19    0.3820E-03
  2854.68    0.3786E-03
  2858.17    0.3752E-03
  2861.66    0.3718E-03
  2865.15    0.3685E-03
  2868.64    0.3653E-03
  2872.13    0.3621E-03
  2875.62    0.3589E-03
  2879.11    0.3558E-03
  2882.60    0.3528E-03
  2886.09    0.3498E-03
  2889.58    0.3468E-03
  2893.07    0.3439E-03
  2896.56    0.3410E-03
  2900.05    0.3382E-03
  2903.54    0.3354E-03
  2907.03    0.3327E-03
  2910.52    0.3300E-03
  2914.01    0.3273E-03
  2917.50    0.3247E-03
  2920.99    0.3222E-03
  2924.48    0.3196E-03
  2927.97    0.3171E-03
  2931.46    0.3147E-03
  2934.95    0.3123E-03
  2938.44    0.3099E-03
  2941.93    0.3075E-03
  2945.41    0.3052E-03
  2948.90    0.3030E-03
  2952.39    0.3007E-03
  2955.88    0.2986E-03
  2959.37    0.2964E-03
  2962.86    0.2943E-03
  2966.35    0.2922E-03
  2969.84    0.2901E-03
  2973.33    0.2881E-03
  2976.82    0.2861E-03
  2980.31    0.2841E-03
  2983.80    0.2822E-03
  2987.29    0.2803E-03
  2990.78    0.2785E-03
  2994.27    0.2766E-03
  2997.76    0.2749E-03
  3001.25    0.2731E-03
  3004.74    0.2714E-03
  3008.23    0.2697E-03
  3011.72    0.2680E-03
  3015.21    0.2663E-03
  3018.70    0.2647E-03
  3022.19    0.2632E-03
  3025.68    0.2616E-03
  3029.17    0.2601E-03
  3032.66    0.2586E-03
  3036.15    0.2571E-03
  3039.64    0.2557E-03
  3043.13    0.2543E-03
  3046.62    0.2530E-03
  3050.11    0.2516E-03
  3053.60    0.2503E-03
  3057.09    0.2490E-03
  3060.58    0.2478E-03
  3064.07    0.2466E-03
  3067.56    0.2454E-03
  3071.05    0.2443E-03
  3074.54    0.2431E-03
  3078.03    0.2421E-03
  3081.52    0.2410E-03
  3085.00    0.2400E-03
  3088.49    0.2390E-03
  3091.98    0.2380E-03
  3095.47    0.2371E-03
  3098.96    0.2362E-03
  3102.45    0.2354E-03
  3105.94    0.2346E-03
  3109.43    0.2338E-03
  3112.92    0.2330E-03
  3116.41    0.2323E-03
  3119.90    0.2317E-03
  3123.39    0.2310E-03
  3126.88    0.2304E-03
  3130.37    0.2299E-03
  3133.86    0.2294E-03
  3137.35    0.2289E-03
  3140.84    0.2285E-03
  3144.33    0.2281E-03
  3147.82    0.2278E-03
  3151.31    0.2275E-03
  3154.80    0.2273E-03
  3158.29    0.2271E-03
  3161.78    0.2269E-03
  3165.27    0.2269E-03
  3168.76    0.2268E-03
  3172.25    0.2269E-03
  3175.74    0.2270E-03
  3179.23    0.2271E-03
  3182.72    0.2274E-03
  3186.21    0.2277E-03
  3189.70    0.2281E-03
  3193.19    0.2285E-03
  3196.68    0.2290E-03
  3200.17    0.2296E-03
  3203.66    0.2303E-03
  3207.15    0.2311E-03
  3210.64    0.2320E-03
  3214.13    0.2330E-03
  3217.62    0.2341E-03
  3221.11    0.2353E-03
  3224.60    0.2367E-03
  3228.08    0.2381E-03
  3231.57    0.2397E-03
  3235.06    0.2415E-03
  3238.55    0.2434E-03
  3242.04    0.2455E-03
  3245.53    0.2477E-03
  3249.02    0.2501E-03
  3252.51    0.2528E-03
  3256.00    0.2556E-03
  3259.49    0.2587E-03
  3262.98    0.2620E-03
  3266.47    0.2656E-03
  3269.96    0.2695E-03
  3273.45    0.2738E-03
  3276.94    0.2783E-03
  3280.43    0.2832E-03
  3283.92    0.2886E-03
  3287.41    0.2944E-03
  3290.90    0.3006E-03
  3294.39    0.3075E-03
  3297.88    0.3148E-03
  3301.37    0.3229E-03
  3304.86    0.3316E-03
  3308.35    0.3412E-03
  3311.84    0.3516E-03
  3315.33    0.3630E-03
  3318.82    0.3755E-03
  3322.31    0.3892E-03
  3325.80    0.4043E-03
  3329.29    0.4209E-03
  3332.78    0.4393E-03
  3336.27    0.4597E-03
  3339.76    0.4824E-03
  3343.25    0.5077E-03
  3346.74    0.5360E-03
  3350.23    0.5678E-03
  3353.72    0.6038E-03
  3357.21    0.6445E-03
  3360.70    0.6909E-03
  3364.19    0.7441E-03
  3367.67    0.8054E-03
  3371.16    0.8764E-03
  3374.65    0.9594E-03
  3378.14    0.1057E-02
  3381.63    0.1173E-02
  3385.12    0.1312E-02
  3388.61    0.1481E-02
  3392.10    0.1687E-02
  3395.59    0.1945E-02
  3399.08    0.2270E-02
  3402.57    0.2688E-02
  3406.06    0.3236E-02
  3409.55    0.3973E-02
  3413.04    0.4988E-02
  3416.53    0.6427E-02
  3420.02    0.8528E-02
  3423.51    0.1167E-01
  3427.00    0.1638E-01
  3430.49    0.2302E-01
  3433.98    0.3031E-01
  3437.47    0.3363E-01
  3440.96    0.2968E-01
  3444.45    0.2230E-01
  3447.94    0.1584E-01
  3451.43    0.1130E-01
  3454.92    0.8282E-02
  3458.41    0.6258E-02
  3461.90    0.4867E-02
  3465.39    0.3882E-02
  3468.88    0.3166E-02
  3472.37    0.2631E-02
  3475.86    0.2222E-02
  3479.35    0.1903E-02
  3482.84    0.1650E-02
  3486.33    0.1446E-02
  3489.82    0.1279E-02
  3493.31    0.1142E-02
  3496.80    0.1026E-02
  3500.29    0.9291E-03
  3503.78    0.8461E-03
  3507.27    0.7749E-03
  3510.75    0.7132E-03
