
 ------------------------------------------------------------
     normal          Raman Scattering Plot
 ------------------------------------------------------------
 Excitation wavelength  514.50 nm
 Convolution lineshape is lorentzian  
 FWHM   20.00  1/cm
 ------------------------------------------------------------
 ------------------------------------------------------------
 # of frequencies :    24
 ------------------------------------------------------------
 #  freq [ 1/cm]  S [Ang**4/amu]
 ------------------------------------------------------------
   1   110.04        0.0033
   2   206.80        1.8319
   3   206.84        1.9307
   4   330.91        0.0013
   5   334.14        0.0045
   6   459.09        3.5503
   7   489.70        1.0998
   8   489.73        1.0445
   9   590.15        0.0003
  10   590.84        0.0001
  11   644.24        2.9889
  12   644.25        3.0472
  13   661.84        0.0003
  14   670.18        0.0004
  15   690.96       33.5175
  16   690.99       34.1286
  17   890.21        0.0000
  18  1269.59        6.1831
  19  1949.77        0.0018
  20  2028.58      791.2272
  21  2108.71     1655.3240
  22  2138.76        0.0003
  23  3435.79      101.7503
  24  3444.35        0.0122
 ------------------------------------------------------------
    53.50    0.4489E-03
    56.95    0.4653E-03
    60.41    0.4829E-03
    63.87    0.5019E-03
    67.33    0.5223E-03
    70.78    0.5445E-03
    74.24    0.5688E-03
    77.70    0.5953E-03
    81.16    0.6247E-03
    84.62    0.6575E-03
    88.07    0.6946E-03
    91.53    0.7376E-03
    94.99    0.7883E-03
    98.45    0.8499E-03
   101.90    0.9256E-03
   105.36    0.1014E-02
   108.82    0.1097E-02
   112.28    0.1148E-02
   115.74    0.1174E-02
   119.19    0.1206E-02
   122.65    0.1256E-02
   126.11    0.1326E-02
   129.57    0.1414E-02
   133.02    0.1521E-02
   136.48    0.1647E-02
   139.94    0.1795E-02
   143.40    0.1969E-02
   146.86    0.2175E-02
   150.31    0.2418E-02
   153.77    0.2708E-02
   157.23    0.3059E-02
   160.69    0.3486E-02
   164.14    0.4015E-02
   167.60    0.4678E-02
   171.06    0.5523E-02
   174.52    0.6621E-02
   177.98    0.8081E-02
   181.43    0.1007E-01
   184.89    0.1285E-01
   188.35    0.1686E-01
   191.81    0.2279E-01
   195.26    0.3167E-01
   198.72    0.4459E-01
   202.18    0.6067E-01
   205.64    0.7269E-01
   209.10    0.7009E-01
   212.55    0.5554E-01
   216.01    0.4007E-01
   219.47    0.2850E-01
   222.93    0.2068E-01
   226.38    0.1546E-01
   229.84    0.1191E-01
   233.30    0.9418E-02
   236.76    0.7625E-02
   240.22    0.6300E-02
   243.67    0.5297E-02
   247.13    0.4521E-02
   250.59    0.3911E-02
   254.05    0.3424E-02
   257.50    0.3028E-02
   260.96    0.2704E-02
   264.42    0.2435E-02
   267.88    0.2210E-02
   271.34    0.2020E-02
   274.79    0.1859E-02
   278.25    0.1721E-02
   281.71    0.1602E-02
   285.17    0.1500E-02
   288.62    0.1411E-02
   292.08    0.1333E-02
   295.54    0.1266E-02
   299.00    0.1207E-02
   302.46    0.1156E-02
   305.91    0.1112E-02
   309.37    0.1074E-02
   312.83    0.1042E-02
   316.29    0.1015E-02
   319.74    0.9947E-03
   323.20    0.9802E-03
   326.66    0.9720E-03
   330.12    0.9676E-03
   333.58    0.9600E-03
   337.03    0.9448E-03
   340.49    0.9266E-03
   343.95    0.9120E-03
   347.41    0.9030E-03
   350.86    0.8991E-03
   354.32    0.8994E-03
   357.78    0.9035E-03
   361.24    0.9111E-03
   364.69    0.9221E-03
   368.15    0.9365E-03
   371.61    0.9546E-03
   375.07    0.9767E-03
   378.53    0.1003E-02
   381.98    0.1034E-02
   385.44    0.1071E-02
   388.90    0.1114E-02
   392.36    0.1164E-02
   395.81    0.1223E-02
   399.27    0.1293E-02
   402.73    0.1375E-02
   406.19    0.1472E-02
   409.65    0.1589E-02
   413.10    0.1731E-02
   416.56    0.1905E-02
   420.02    0.2121E-02
   423.48    0.2393E-02
   426.93    0.2744E-02
   430.39    0.3205E-02
   433.85    0.3826E-02
   437.31    0.4686E-02
   440.77    0.5913E-02
   444.22    0.7712E-02
   447.68    0.1039E-01
   451.14    0.1424E-01
   454.60    0.1899E-01
   458.05    0.2248E-01
   461.51    0.2179E-01
   464.97    0.1791E-01
   468.43    0.1402E-01
   471.89    0.1146E-01
   475.34    0.1030E-01
   478.80    0.1036E-01
   482.26    0.1154E-01
   485.72    0.1340E-01
   489.17    0.1448E-01
   492.63    0.1325E-01
   496.09    0.1055E-01
   499.55    0.8010E-02
   503.01    0.6160E-02
   506.46    0.4906E-02
   509.92    0.4059E-02
   513.38    0.3474E-02
   516.84    0.3063E-02
   520.29    0.2768E-02
   523.75    0.2554E-02
   527.21    0.2399E-02
   530.67    0.2287E-02
   534.13    0.2209E-02
   537.58    0.2157E-02
   541.04    0.2127E-02
   544.50    0.2116E-02
   547.96    0.2121E-02
   551.41    0.2141E-02
   554.87    0.2174E-02
   558.33    0.2221E-02
   561.79    0.2281E-02
   565.25    0.2355E-02
   568.70    0.2442E-02
   572.16    0.2545E-02
   575.62    0.2665E-02
   579.08    0.2803E-02
   582.53    0.2962E-02
   585.99    0.3144E-02
   589.45    0.3355E-02
   592.91    0.3598E-02
   596.37    0.3881E-02
   599.82    0.4212E-02
   603.28    0.4603E-02
   606.74    0.5070E-02
   610.20    0.5636E-02
   613.65    0.6334E-02
   617.11    0.7211E-02
   620.57    0.8341E-02
   624.03    0.9839E-02
   627.49    0.1189E-01
   630.94    0.1478E-01
   634.40    0.1888E-01
   637.86    0.2439E-01
   641.32    0.3029E-01
   644.77    0.3337E-01
   648.23    0.3197E-01
   651.69    0.2906E-01
   655.15    0.2748E-01
   658.61    0.2797E-01
   662.06    0.3059E-01
   665.52    0.3551E-01
   668.98    0.4335E-01
   672.44    0.5531E-01
   675.89    0.7348E-01
   679.35    0.1011    
   682.81    0.1415    
   686.27    0.1923    
   689.72    0.2308    
   693.18    0.2234    
   696.64    0.1775    
   700.10    0.1281    
   703.56    0.9109E-01
   707.01    0.6602E-01
   710.47    0.4926E-01
   713.93    0.3784E-01
   717.39    0.2984E-01
   720.84    0.2407E-01
   724.30    0.1980E-01
   727.76    0.1655E-01
   731.22    0.1404E-01
   734.68    0.1206E-01
   738.13    0.1047E-01
   741.59    0.9180E-02
   745.05    0.8115E-02
   748.51    0.7228E-02
   751.96    0.6480E-02
   755.42    0.5846E-02
   758.88    0.5302E-02
   762.34    0.4832E-02
   765.80    0.4425E-02
   769.25    0.4068E-02
   772.71    0.3754E-02
   776.17    0.3477E-02
   779.63    0.3231E-02
   783.08    0.3011E-02
   786.54    0.2815E-02
   790.00    0.2638E-02
   793.46    0.2478E-02
   796.92    0.2333E-02
   800.37    0.2202E-02
   803.83    0.2082E-02
   807.29    0.1973E-02
   810.75    0.1872E-02
   814.20    0.1780E-02
   817.66    0.1695E-02
   821.12    0.1617E-02
   824.58    0.1545E-02
   828.04    0.1478E-02
   831.49    0.1416E-02
   834.95    0.1358E-02
   838.41    0.1305E-02
   841.87    0.1255E-02
   845.32    0.1208E-02
   848.78    0.1164E-02
   852.24    0.1123E-02
   855.70    0.1085E-02
   859.16    0.1049E-02
   862.61    0.1015E-02
   866.07    0.9829E-03
   869.53    0.9529E-03
   872.99    0.9246E-03
   876.44    0.8978E-03
   879.90    0.8726E-03
   883.36    0.8487E-03
   886.82    0.8261E-03
   890.28    0.8047E-03
   893.73    0.7844E-03
   897.19    0.7652E-03
   900.65    0.7469E-03
   904.11    0.7295E-03
   907.56    0.7130E-03
   911.02    0.6973E-03
   914.48    0.6824E-03
   917.94    0.6682E-03
   921.40    0.6546E-03
   924.85    0.6417E-03
   928.31    0.6294E-03
   931.77    0.6177E-03
   935.23    0.6065E-03
   938.68    0.5959E-03
   942.14    0.5857E-03
   945.60    0.5760E-03
   949.06    0.5667E-03
   952.52    0.5578E-03
   955.97    0.5493E-03
   959.43    0.5412E-03
   962.89    0.5335E-03
   966.35    0.5261E-03
   969.80    0.5190E-03
   973.26    0.5122E-03
   976.72    0.5058E-03
   980.18    0.4996E-03
   983.64    0.4937E-03
   987.09    0.4881E-03
   990.55    0.4827E-03
   994.01    0.4776E-03
   997.47    0.4727E-03
  1000.92    0.4680E-03
  1004.38    0.4636E-03
  1007.84    0.4593E-03
  1011.30    0.4553E-03
  1014.76    0.4515E-03
  1018.21    0.4478E-03
  1021.67    0.4444E-03
  1025.13    0.4411E-03
  1028.59    0.4380E-03
  1032.04    0.4351E-03
  1035.50    0.4323E-03
  1038.96    0.4297E-03
  1042.42    0.4273E-03
  1045.87    0.4250E-03
  1049.33    0.4229E-03
  1052.79    0.4210E-03
  1056.25    0.4191E-03
  1059.71    0.4175E-03
  1063.16    0.4160E-03
  1066.62    0.4146E-03
  1070.08    0.4134E-03
  1073.54    0.4123E-03
  1076.99    0.4114E-03
  1080.45    0.4106E-03
  1083.91    0.4099E-03
  1087.37    0.4095E-03
  1090.83    0.4091E-03
  1094.28    0.4090E-03
  1097.74    0.4089E-03
  1101.20    0.4091E-03
  1104.66    0.4094E-03
  1108.11    0.4099E-03
  1111.57    0.4106E-03
  1115.03    0.4114E-03
  1118.49    0.4125E-03
  1121.95    0.4137E-03
  1125.40    0.4152E-03
  1128.86    0.4169E-03
  1132.32    0.4189E-03
  1135.78    0.4211E-03
  1139.23    0.4236E-03
  1142.69    0.4264E-03
  1146.15    0.4295E-03
  1149.61    0.4330E-03
  1153.07    0.4369E-03
  1156.52    0.4412E-03
  1159.98    0.4460E-03
  1163.44    0.4514E-03
  1166.90    0.4573E-03
  1170.35    0.4640E-03
  1173.81    0.4714E-03
  1177.27    0.4796E-03
  1180.73    0.4889E-03
  1184.19    0.4993E-03
  1187.64    0.5110E-03
  1191.10    0.5243E-03
  1194.56    0.5394E-03
  1198.02    0.5567E-03
  1201.47    0.5766E-03
  1204.93    0.5996E-03
  1208.39    0.6264E-03
  1211.85    0.6579E-03
  1215.31    0.6953E-03
  1218.76    0.7401E-03
  1222.22    0.7944E-03
  1225.68    0.8609E-03
  1229.14    0.9438E-03
  1232.59    0.1049E-02
  1236.05    0.1184E-02
  1239.51    0.1362E-02
  1242.97    0.1601E-02
  1246.43    0.1933E-02
  1249.88    0.2405E-02
  1253.34    0.3098E-02
  1256.80    0.4134E-02
  1260.26    0.5668E-02
  1263.71    0.7734E-02
  1267.17    0.9725E-02
  1270.63    0.1017E-01
  1274.09    0.8610E-02
  1277.55    0.6444E-02
  1281.00    0.4686E-02
  1284.46    0.3474E-02
  1287.92    0.2666E-02
  1291.38    0.2121E-02
  1294.83    0.1743E-02
  1298.29    0.1475E-02
  1301.75    0.1278E-02
  1305.21    0.1131E-02
  1308.67    0.1019E-02
  1312.12    0.9314E-03
  1315.58    0.8621E-03
  1319.04    0.8066E-03
  1322.50    0.7616E-03
  1325.95    0.7248E-03
  1329.41    0.6944E-03
  1332.87    0.6691E-03
  1336.33    0.6479E-03
  1339.79    0.6302E-03
  1343.24    0.6152E-03
  1346.70    0.6026E-03
  1350.16    0.5919E-03
  1353.62    0.5829E-03
  1357.07    0.5754E-03
  1360.53    0.5690E-03
  1363.99    0.5637E-03
  1367.45    0.5593E-03
  1370.90    0.5558E-03
  1374.36    0.5530E-03
  1377.82    0.5508E-03
  1381.28    0.5492E-03
  1384.74    0.5480E-03
  1388.19    0.5474E-03
  1391.65    0.5472E-03
  1395.11    0.5473E-03
  1398.57    0.5479E-03
  1402.02    0.5487E-03
  1405.48    0.5499E-03
  1408.94    0.5513E-03
  1412.40    0.5530E-03
  1415.86    0.5549E-03
  1419.31    0.5571E-03
  1422.77    0.5595E-03
  1426.23    0.5621E-03
  1429.69    0.5649E-03
  1433.14    0.5679E-03
  1436.60    0.5711E-03
  1440.06    0.5745E-03
  1443.52    0.5780E-03
  1446.98    0.5818E-03
  1450.43    0.5857E-03
  1453.89    0.5897E-03
  1457.35    0.5939E-03
  1460.81    0.5983E-03
  1464.26    0.6028E-03
  1467.72    0.6075E-03
  1471.18    0.6124E-03
  1474.64    0.6174E-03
  1478.10    0.6225E-03
  1481.55    0.6278E-03
  1485.01    0.6333E-03
  1488.47    0.6389E-03
  1491.93    0.6447E-03
  1495.38    0.6506E-03
  1498.84    0.6567E-03
  1502.30    0.6630E-03
  1505.76    0.6694E-03
  1509.22    0.6759E-03
  1512.67    0.6827E-03
  1516.13    0.6896E-03
  1519.59    0.6966E-03
  1523.05    0.7039E-03
  1526.50    0.7113E-03
  1529.96    0.7189E-03
  1533.42    0.7266E-03
  1536.88    0.7346E-03
  1540.34    0.7427E-03
  1543.79    0.7511E-03
  1547.25    0.7596E-03
  1550.71    0.7683E-03
  1554.17    0.7773E-03
  1557.62    0.7864E-03
  1561.08    0.7958E-03
  1564.54    0.8053E-03
  1568.00    0.8151E-03
  1571.46    0.8252E-03
  1574.91    0.8354E-03
  1578.37    0.8459E-03
  1581.83    0.8567E-03
  1585.29    0.8677E-03
  1588.74    0.8789E-03
  1592.20    0.8904E-03
  1595.66    0.9022E-03
  1599.12    0.9143E-03
  1602.58    0.9267E-03
  1606.03    0.9393E-03
  1609.49    0.9523E-03
  1612.95    0.9656E-03
  1616.41    0.9792E-03
  1619.86    0.9931E-03
  1623.32    0.1007E-02
  1626.78    0.1022E-02
  1630.24    0.1037E-02
  1633.70    0.1052E-02
  1637.15    0.1068E-02
  1640.61    0.1084E-02
  1644.07    0.1101E-02
  1647.53    0.1118E-02
  1650.98    0.1135E-02
  1654.44    0.1153E-02
  1657.90    0.1172E-02
  1661.36    0.1190E-02
  1664.82    0.1210E-02
  1668.27    0.1230E-02
  1671.73    0.1250E-02
  1675.19    0.1271E-02
  1678.65    0.1293E-02
  1682.10    0.1315E-02
  1685.56    0.1338E-02
  1689.02    0.1361E-02
  1692.48    0.1385E-02
  1695.94    0.1410E-02
  1699.39    0.1435E-02
  1702.85    0.1462E-02
  1706.31    0.1489E-02
  1709.77    0.1516E-02
  1713.22    0.1545E-02
  1716.68    0.1574E-02
  1720.14    0.1605E-02
  1723.60    0.1636E-02
  1727.05    0.1669E-02
  1730.51    0.1702E-02
  1733.97    0.1736E-02
  1737.43    0.1772E-02
  1740.89    0.1809E-02
  1744.34    0.1847E-02
  1747.80    0.1886E-02
  1751.26    0.1926E-02
  1754.72    0.1968E-02
  1758.17    0.2011E-02
  1761.63    0.2056E-02
  1765.09    0.2103E-02
  1768.55    0.2151E-02
  1772.01    0.2201E-02
  1775.46    0.2252E-02
  1778.92    0.2306E-02
  1782.38    0.2362E-02
  1785.84    0.2419E-02
  1789.29    0.2479E-02
  1792.75    0.2542E-02
  1796.21    0.2607E-02
  1799.67    0.2674E-02
  1803.13    0.2744E-02
  1806.58    0.2817E-02
  1810.04    0.2893E-02
  1813.50    0.2973E-02
  1816.96    0.3056E-02
  1820.41    0.3142E-02
  1823.87    0.3233E-02
  1827.33    0.3328E-02
  1830.79    0.3427E-02
  1834.25    0.3530E-02
  1837.70    0.3639E-02
  1841.16    0.3753E-02
  1844.62    0.3872E-02
  1848.08    0.3998E-02
  1851.53    0.4130E-02
  1854.99    0.4269E-02
  1858.45    0.4416E-02
  1861.91    0.4571E-02
  1865.37    0.4734E-02
  1868.82    0.4907E-02
  1872.28    0.5089E-02
  1875.74    0.5283E-02
  1879.20    0.5488E-02
  1882.65    0.5707E-02
  1886.11    0.5939E-02
  1889.57    0.6187E-02
  1893.03    0.6451E-02
  1896.49    0.6733E-02
  1899.94    0.7035E-02
  1903.40    0.7360E-02
  1906.86    0.7709E-02
  1910.32    0.8084E-02
  1913.77    0.8490E-02
  1917.23    0.8929E-02
  1920.69    0.9405E-02
  1924.15    0.9923E-02
  1927.61    0.1049E-01
  1931.06    0.1111E-01
  1934.52    0.1179E-01
  1937.98    0.1253E-01
  1941.44    0.1336E-01
  1944.89    0.1428E-01
  1948.35    0.1531E-01
  1951.81    0.1645E-01
  1955.27    0.1775E-01
  1958.73    0.1921E-01
  1962.18    0.2089E-01
  1965.64    0.2281E-01
  1969.10    0.2504E-01
  1972.56    0.2764E-01
  1976.01    0.3070E-01
  1979.47    0.3436E-01
  1982.93    0.3877E-01
  1986.39    0.4416E-01
  1989.85    0.5087E-01
  1993.30    0.5935E-01
  1996.76    0.7028E-01
  2000.22    0.8472E-01
  2003.68    0.1043    
  2007.13    0.1316    
  2010.59    0.1707    
  2014.05    0.2286    
  2017.51    0.3148    
  2020.97    0.4384    
  2024.42    0.5860    
  2027.88    0.6823    
  2031.34    0.6402    
  2034.80    0.5037    
  2038.25    0.3698    
  2041.71    0.2730    
  2045.17    0.2092    
  2048.63    0.1681    
  2052.08    0.1418    
  2055.54    0.1254    
  2059.00    0.1161    
  2062.46    0.1121    
  2065.92    0.1127    
  2069.37    0.1176    
  2072.83    0.1272    
  2076.29    0.1423    
  2079.75    0.1646    
  2083.20    0.1969    
  2086.66    0.2436    
  2090.12    0.3123    
  2093.58    0.4152    
  2097.04    0.5706    
  2100.49    0.7979    
  2103.95     1.084    
  2107.41     1.304    
  2110.87     1.266    
  2114.32     1.009    
  2117.78    0.7297    
  2121.24    0.5194    
  2124.70    0.3770    
  2128.16    0.2817    
  2131.61    0.2168    
  2135.07    0.1713    
  2138.53    0.1384    
  2141.99    0.1141    
  2145.44    0.9560E-01
  2148.90    0.8125E-01
  2152.36    0.6992E-01
  2155.82    0.6082E-01
  2159.28    0.5340E-01
  2162.73    0.4727E-01
  2166.19    0.4215E-01
  2169.65    0.3783E-01
  2173.11    0.3416E-01
  2176.56    0.3100E-01
  2180.02    0.2827E-01
  2183.48    0.2589E-01
  2186.94    0.2381E-01
  2190.40    0.2197E-01
  2193.85    0.2034E-01
  2197.31    0.1889E-01
  2200.77    0.1759E-01
  2204.23    0.1643E-01
  2207.68    0.1538E-01
  2211.14    0.1443E-01
  2214.60    0.1356E-01
  2218.06    0.1277E-01
  2221.52    0.1206E-01
  2224.97    0.1140E-01
  2228.43    0.1079E-01
  2231.89    0.1024E-01
  2235.35    0.9721E-02
  2238.80    0.9245E-02
  2242.26    0.8805E-02
  2245.72    0.8395E-02
  2249.18    0.8014E-02
  2252.64    0.7659E-02
  2256.09    0.7327E-02
  2259.55    0.7017E-02
  2263.01    0.6727E-02
  2266.47    0.6455E-02
  2269.92    0.6199E-02
  2273.38    0.5958E-02
  2276.84    0.5731E-02
  2280.30    0.5517E-02
  2283.76    0.5316E-02
  2287.21    0.5125E-02
  2290.67    0.4944E-02
  2294.13    0.4773E-02
  2297.59    0.4611E-02
  2301.04    0.4458E-02
  2304.50    0.4311E-02
  2307.96    0.4172E-02
  2311.42    0.4040E-02
  2314.88    0.3914E-02
  2318.33    0.3794E-02
  2321.79    0.3680E-02
  2325.25    0.3570E-02
  2328.71    0.3466E-02
  2332.16    0.3366E-02
  2335.62    0.3271E-02
  2339.08    0.3179E-02
  2342.54    0.3092E-02
  2346.00    0.3008E-02
  2349.45    0.2927E-02
  2352.91    0.2850E-02
  2356.37    0.2775E-02
  2359.83    0.2704E-02
  2363.28    0.2636E-02
  2366.74    0.2570E-02
  2370.20    0.2506E-02
  2373.66    0.2445E-02
  2377.12    0.2386E-02
  2380.57    0.2329E-02
  2384.03    0.2275E-02
  2387.49    0.2222E-02
  2390.95    0.2171E-02
  2394.40    0.2122E-02
  2397.86    0.2074E-02
  2401.32    0.2028E-02
  2404.78    0.1984E-02
  2408.23    0.1941E-02
  2411.69    0.1900E-02
  2415.15    0.1859E-02
  2418.61    0.1821E-02
  2422.07    0.1783E-02
  2425.52    0.1746E-02
  2428.98    0.1711E-02
  2432.44    0.1677E-02
  2435.90    0.1643E-02
  2439.35    0.1611E-02
  2442.81    0.1580E-02
  2446.27    0.1550E-02
  2449.73    0.1520E-02
  2453.19    0.1491E-02
  2456.64    0.1464E-02
  2460.10    0.1437E-02
  2463.56    0.1410E-02
  2467.02    0.1385E-02
  2470.47    0.1360E-02
  2473.93    0.1336E-02
  2477.39    0.1312E-02
  2480.85    0.1289E-02
  2484.31    0.1267E-02
  2487.76    0.1245E-02
  2491.22    0.1224E-02
  2494.68    0.1203E-02
  2498.14    0.1183E-02
  2501.59    0.1164E-02
  2505.05    0.1145E-02
  2508.51    0.1126E-02
  2511.97    0.1108E-02
  2515.43    0.1090E-02
  2518.88    0.1073E-02
  2522.34    0.1056E-02
  2525.80    0.1039E-02
  2529.26    0.1023E-02
  2532.71    0.1008E-02
  2536.17    0.9923E-03
  2539.63    0.9774E-03
  2543.09    0.9627E-03
  2546.55    0.9484E-03
  2550.00    0.9345E-03
  2553.46    0.9208E-03
  2556.92    0.9074E-03
  2560.38    0.8944E-03
  2563.83    0.8816E-03
  2567.29    0.8691E-03
  2570.75    0.8569E-03
  2574.21    0.8449E-03
  2577.67    0.8332E-03
  2581.12    0.8217E-03
  2584.58    0.8105E-03
  2588.04    0.7995E-03
  2591.50    0.7888E-03
  2594.95    0.7782E-03
  2598.41    0.7679E-03
  2601.87    0.7578E-03
  2605.33    0.7479E-03
  2608.79    0.7382E-03
  2612.24    0.7286E-03
  2615.70    0.7193E-03
  2619.16    0.7102E-03
  2622.62    0.7012E-03
  2626.07    0.6924E-03
  2629.53    0.6838E-03
  2632.99    0.6753E-03
  2636.45    0.6670E-03
  2639.91    0.6589E-03
  2643.36    0.6509E-03
  2646.82    0.6431E-03
  2650.28    0.6354E-03
  2653.74    0.6278E-03
  2657.19    0.6204E-03
  2660.65    0.6132E-03
  2664.11    0.6060E-03
  2667.57    0.5990E-03
  2671.03    0.5921E-03
  2674.48    0.5854E-03
  2677.94    0.5787E-03
  2681.40    0.5722E-03
  2684.86    0.5658E-03
  2688.31    0.5595E-03
  2691.77    0.5533E-03
  2695.23    0.5472E-03
  2698.69    0.5413E-03
  2702.15    0.5354E-03
  2705.60    0.5296E-03
  2709.06    0.5239E-03
  2712.52    0.5184E-03
  2715.98    0.5129E-03
  2719.43    0.5075E-03
  2722.89    0.5022E-03
  2726.35    0.4970E-03
  2729.81    0.4918E-03
  2733.26    0.4868E-03
  2736.72    0.4818E-03
  2740.18    0.4770E-03
  2743.64    0.4721E-03
  2747.10    0.4674E-03
  2750.55    0.4628E-03
  2754.01    0.4582E-03
  2757.47    0.4537E-03
  2760.93    0.4493E-03
  2764.38    0.4449E-03
  2767.84    0.4406E-03
  2771.30    0.4364E-03
  2774.76    0.4322E-03
  2778.22    0.4282E-03
  2781.67    0.4241E-03
  2785.13    0.4202E-03
  2788.59    0.4162E-03
  2792.05    0.4124E-03
  2795.50    0.4086E-03
  2798.96    0.4049E-03
  2802.42    0.4012E-03
  2805.88    0.3976E-03
  2809.34    0.3940E-03
  2812.79    0.3905E-03
  2816.25    0.3871E-03
  2819.71    0.3837E-03
  2823.17    0.3803E-03
  2826.62    0.3770E-03
  2830.08    0.3738E-03
  2833.54    0.3706E-03
  2837.00    0.3674E-03
  2840.46    0.3643E-03
  2843.91    0.3612E-03
  2847.37    0.3582E-03
  2850.83    0.3552E-03
  2854.29    0.3523E-03
  2857.74    0.3494E-03
  2861.20    0.3466E-03
  2864.66    0.3438E-03
  2868.12    0.3410E-03
  2871.58    0.3383E-03
  2875.03    0.3356E-03
  2878.49    0.3330E-03
  2881.95    0.3304E-03
  2885.41    0.3278E-03
  2888.86    0.3253E-03
  2892.32    0.3228E-03
  2895.78    0.3203E-03
  2899.24    0.3179E-03
  2902.70    0.3155E-03
  2906.15    0.3132E-03
  2909.61    0.3109E-03
  2913.07    0.3086E-03
  2916.53    0.3064E-03
  2919.98    0.3042E-03
  2923.44    0.3020E-03
  2926.90    0.2998E-03
  2930.36    0.2977E-03
  2933.82    0.2957E-03
  2937.27    0.2936E-03
  2940.73    0.2916E-03
  2944.19    0.2896E-03
  2947.65    0.2877E-03
  2951.10    0.2857E-03
  2954.56    0.2838E-03
  2958.02    0.2820E-03
  2961.48    0.2801E-03
  2964.94    0.2783E-03
  2968.39    0.2766E-03
  2971.85    0.2748E-03
  2975.31    0.2731E-03
  2978.77    0.2714E-03
  2982.22    0.2697E-03
  2985.68    0.2681E-03
  2989.14    0.2665E-03
  2992.60    0.2649E-03
  2996.06    0.2634E-03
  2999.51    0.2618E-03
  3002.97    0.2604E-03
  3006.43    0.2589E-03
  3009.89    0.2574E-03
  3013.34    0.2560E-03
  3016.80    0.2546E-03
  3020.26    0.2533E-03
  3023.72    0.2520E-03
  3027.18    0.2507E-03
  3030.63    0.2494E-03
  3034.09    0.2481E-03
  3037.55    0.2469E-03
  3041.01    0.2457E-03
  3044.46    0.2446E-03
  3047.92    0.2434E-03
  3051.38    0.2423E-03
  3054.84    0.2412E-03
  3058.30    0.2402E-03
  3061.75    0.2391E-03
  3065.21    0.2382E-03
  3068.67    0.2372E-03
  3072.13    0.2363E-03
  3075.58    0.2353E-03
  3079.04    0.2345E-03
  3082.50    0.2336E-03
  3085.96    0.2328E-03
  3089.41    0.2320E-03
  3092.87    0.2313E-03
  3096.33    0.2306E-03
  3099.79    0.2299E-03
  3103.25    0.2292E-03
  3106.70    0.2286E-03
  3110.16    0.2280E-03
  3113.62    0.2275E-03
  3117.08    0.2270E-03
  3120.53    0.2265E-03
  3123.99    0.2261E-03
  3127.45    0.2257E-03
  3130.91    0.2253E-03
  3134.37    0.2250E-03
  3137.82    0.2247E-03
  3141.28    0.2245E-03
  3144.74    0.2243E-03
  3148.20    0.2242E-03
  3151.65    0.2241E-03
  3155.11    0.2241E-03
  3158.57    0.2241E-03
  3162.03    0.2242E-03
  3165.49    0.2243E-03
  3168.94    0.2245E-03
  3172.40    0.2247E-03
  3175.86    0.2251E-03
  3179.32    0.2254E-03
  3182.77    0.2259E-03
  3186.23    0.2264E-03
  3189.69    0.2270E-03
  3193.15    0.2277E-03
  3196.61    0.2285E-03
  3200.06    0.2293E-03
  3203.52    0.2303E-03
  3206.98    0.2313E-03
  3210.44    0.2324E-03
  3213.89    0.2337E-03
  3217.35    0.2351E-03
  3220.81    0.2365E-03
  3224.27    0.2382E-03
  3227.73    0.2399E-03
  3231.18    0.2418E-03
  3234.64    0.2439E-03
  3238.10    0.2461E-03
  3241.56    0.2485E-03
  3245.01    0.2511E-03
  3248.47    0.2539E-03
  3251.93    0.2569E-03
  3255.39    0.2601E-03
  3258.85    0.2636E-03
  3262.30    0.2673E-03
  3265.76    0.2714E-03
  3269.22    0.2757E-03
  3272.68    0.2804E-03
  3276.13    0.2855E-03
  3279.59    0.2910E-03
  3283.05    0.2969E-03
  3286.51    0.3033E-03
  3289.97    0.3102E-03
  3293.42    0.3176E-03
  3296.88    0.3257E-03
  3300.34    0.3345E-03
  3303.80    0.3441E-03
  3307.25    0.3545E-03
  3310.71    0.3658E-03
  3314.17    0.3782E-03
  3317.63    0.3917E-03
  3321.09    0.4065E-03
  3324.54    0.4228E-03
  3328.00    0.4408E-03
  3331.46    0.4606E-03
  3334.92    0.4826E-03
  3338.37    0.5070E-03
  3341.83    0.5342E-03
  3345.29    0.5646E-03
  3348.75    0.5987E-03
  3352.21    0.6371E-03
  3355.66    0.6806E-03
  3359.12    0.7301E-03
  3362.58    0.7867E-03
  3366.04    0.8518E-03
  3369.49    0.9272E-03
  3372.95    0.1015E-02
  3376.41    0.1118E-02
  3379.87    0.1241E-02
  3383.33    0.1387E-02
  3386.78    0.1563E-02
  3390.24    0.1780E-02
  3393.70    0.2048E-02
  3397.16    0.2385E-02
  3400.61    0.2816E-02
  3404.07    0.3380E-02
  3407.53    0.4132E-02
  3410.99    0.5161E-02
  3414.44    0.6609E-02
  3417.90    0.8705E-02
  3421.36    0.1182E-01
  3424.82    0.1648E-01
  3428.28    0.2317E-01
  3431.73    0.3109E-01
  3435.19    0.3606E-01
  3438.65    0.3347E-01
  3442.11    0.2591E-01
  3445.56    0.1857E-01
  3449.02    0.1323E-01
  3452.48    0.9645E-02
  3455.94    0.7243E-02
  3459.40    0.5601E-02
  3462.85    0.4444E-02
  3466.31    0.3607E-02
  3469.77    0.2984E-02
  3473.23    0.2510E-02
  3476.68    0.2143E-02
  3480.14    0.1852E-02
  3483.60    0.1618E-02
  3487.06    0.1428E-02
  3490.52    0.1270E-02
  3493.97    0.1139E-02
  3497.43    0.1029E-02
  3500.89    0.9349E-03
  3504.35    0.8543E-03
  3507.80    0.7847E-03
