
 ------------------------------------------------------------
     normal          Raman Scattering Plot
 ------------------------------------------------------------
 Excitation wavelength  514.50 nm
 Convolution lineshape is lorentzian  
 FWHM   20.00  1/cm
 ------------------------------------------------------------
 ------------------------------------------------------------
 # of frequencies :    24
 ------------------------------------------------------------
 #  freq [ 1/cm]  S [Ang**4/amu]
 ------------------------------------------------------------
   1    59.13        0.0009
   2   165.66        1.8811
   3   165.66        1.9031
   4   293.76        0.0015
   5   296.45        0.0095
   6   462.47        1.0433
   7   462.48        0.9935
   8   480.09        4.6903
   9   566.63        0.0002
  10   568.81        0.0009
  11   632.33        9.5288
  12   632.35        9.6127
  13   654.37        0.0004
  14   662.09        0.0000
  15   677.40       45.1290
  16   677.42       45.1326
  17   929.56        0.0000
  18  1328.48        7.6064
  19  2003.91        0.0017
  20  2093.50      722.1129
  21  2191.42     1598.9566
  22  2215.87        0.0007
  23  3438.68       91.3383
  24  3448.93        0.0134
 ------------------------------------------------------------
     2.65    0.5502E-03
     6.16    0.5700E-03
     9.67    0.5910E-03
    13.19    0.6136E-03
    16.70    0.6379E-03
    20.21    0.6641E-03
    23.73    0.6925E-03
    27.24    0.7234E-03
    30.75    0.7572E-03
    34.27    0.7947E-03
    37.78    0.8366E-03
    41.29    0.8843E-03
    44.81    0.9399E-03
    48.32    0.1006E-02
    51.83    0.1085E-02
    55.35    0.1174E-02
    58.86    0.1253E-02
    62.37    0.1304E-02
    65.89    0.1342E-02
    69.40    0.1391E-02
    72.91    0.1458E-02
    76.43    0.1542E-02
    79.94    0.1644E-02
    83.45    0.1762E-02
    86.97    0.1899E-02
    90.48    0.2058E-02
    93.99    0.2240E-02
    97.51    0.2451E-02
   101.02    0.2698E-02
   104.53    0.2986E-02
   108.05    0.3327E-02
   111.56    0.3734E-02
   115.07    0.4223E-02
   118.59    0.4820E-02
   122.10    0.5557E-02
   125.61    0.6481E-02
   129.13    0.7659E-02
   132.64    0.9190E-02
   136.15    0.1122E-01
   139.67    0.1399E-01
   143.18    0.1787E-01
   146.69    0.2346E-01
   150.21    0.3175E-01
   153.72    0.4426E-01
   157.23    0.6269E-01
   160.75    0.8627E-01
   164.26    0.1050    
   167.77    0.1025    
   171.29    0.8137E-01
   174.80    0.5845E-01
   178.31    0.4132E-01
   181.83    0.2982E-01
   185.34    0.2218E-01
   188.85    0.1701E-01
   192.37    0.1340E-01
   195.88    0.1082E-01
   199.39    0.8907E-02
   202.91    0.7464E-02
   206.42    0.6351E-02
   209.93    0.5477E-02
   213.45    0.4778E-02
   216.96    0.4211E-02
   220.47    0.3747E-02
   223.99    0.3362E-02
   227.50    0.3039E-02
   231.01    0.2766E-02
   234.53    0.2534E-02
   238.04    0.2335E-02
   241.55    0.2163E-02
   245.07    0.2014E-02
   248.58    0.1885E-02
   252.09    0.1772E-02
   255.61    0.1673E-02
   259.12    0.1586E-02
   262.63    0.1509E-02
   266.15    0.1442E-02
   269.66    0.1384E-02
   273.17    0.1334E-02
   276.69    0.1291E-02
   280.20    0.1257E-02
   283.71    0.1233E-02
   287.23    0.1219E-02
   290.74    0.1215E-02
   294.25    0.1211E-02
   297.77    0.1189E-02
   301.28    0.1147E-02
   304.79    0.1103E-02
   308.31    0.1068E-02
   311.82    0.1041E-02
   315.33    0.1022E-02
   318.85    0.1008E-02
   322.36    0.9976E-03
   325.87    0.9907E-03
   329.39    0.9867E-03
   332.90    0.9851E-03
   336.41    0.9860E-03
   339.93    0.9890E-03
   343.44    0.9943E-03
   346.95    0.1002E-02
   350.47    0.1011E-02
   353.98    0.1023E-02
   357.49    0.1038E-02
   361.01    0.1054E-02
   364.52    0.1074E-02
   368.03    0.1096E-02
   371.55    0.1122E-02
   375.06    0.1151E-02
   378.57    0.1183E-02
   382.09    0.1220E-02
   385.60    0.1262E-02
   389.11    0.1310E-02
   392.63    0.1364E-02
   396.14    0.1425E-02
   399.65    0.1495E-02
   403.17    0.1576E-02
   406.68    0.1669E-02
   410.19    0.1778E-02
   413.71    0.1905E-02
   417.22    0.2057E-02
   420.73    0.2239E-02
   424.25    0.2460E-02
   427.76    0.2734E-02
   431.27    0.3079E-02
   434.79    0.3523E-02
   438.30    0.4109E-02
   441.81    0.4903E-02
   445.33    0.6013E-02
   448.84    0.7608E-02
   452.35    0.9926E-02
   455.87    0.1315E-01
   459.38    0.1689E-01
   462.89    0.1960E-01
   466.41    0.2054E-01
   469.92    0.2166E-01
   473.43    0.2469E-01
   476.94    0.2882E-01
   480.46    0.3014E-01
   483.97    0.2612E-01
   487.48    0.1989E-01
   491.00    0.1465E-01
   494.51    0.1102E-01
   498.02    0.8612E-02
   501.54    0.7004E-02
   505.05    0.5910E-02
   508.56    0.5149E-02
   512.08    0.4612E-02
   515.59    0.4230E-02
   519.10    0.3960E-02
   522.62    0.3773E-02
   526.13    0.3650E-02
   529.64    0.3577E-02
   533.16    0.3546E-02
   536.67    0.3551E-02
   540.18    0.3588E-02
   543.70    0.3656E-02
   547.21    0.3752E-02
   550.72    0.3876E-02
   554.24    0.4030E-02
   557.75    0.4216E-02
   561.26    0.4436E-02
   564.78    0.4695E-02
   568.29    0.4996E-02
   571.80    0.5346E-02
   575.32    0.5755E-02
   578.83    0.6234E-02
   582.34    0.6801E-02
   585.86    0.7476E-02
   589.37    0.8286E-02
   592.88    0.9272E-02
   596.40    0.1049E-01
   599.91    0.1202E-01
   603.42    0.1398E-01
   606.94    0.1656E-01
   610.45    0.2006E-01
   613.96    0.2495E-01
   617.48    0.3199E-01
   620.99    0.4232E-01
   624.50    0.5709E-01
   628.02    0.7512E-01
   631.53    0.8817E-01
   635.04    0.8598E-01
   638.56    0.7339E-01
   642.07    0.6188E-01
   645.58    0.5576E-01
   649.10    0.5505E-01
   652.61    0.5934E-01
   656.12    0.6904E-01
   659.64    0.8571E-01
   663.15    0.1125    
   666.66    0.1541    
   670.18    0.2146    
   673.69    0.2846    
   677.20    0.3226    
   680.72    0.2908    
   684.23    0.2206    
   687.74    0.1568    
   691.26    0.1116    
   694.77    0.8152E-01
   698.28    0.6141E-01
   701.80    0.4762E-01
   705.31    0.3787E-01
   708.82    0.3079E-01
   712.34    0.2550E-01
   715.85    0.2145E-01
   719.36    0.1830E-01
   722.88    0.1580E-01
   726.39    0.1378E-01
   729.90    0.1212E-01
   733.42    0.1075E-01
   736.93    0.9607E-02
   740.44    0.8638E-02
   743.96    0.7811E-02
   747.47    0.7099E-02
   750.98    0.6483E-02
   754.50    0.5945E-02
   758.01    0.5474E-02
   761.52    0.5058E-02
   765.04    0.4689E-02
   768.55    0.4361E-02
   772.06    0.4067E-02
   775.58    0.3803E-02
   779.09    0.3565E-02
   782.60    0.3350E-02
   786.12    0.3154E-02
   789.63    0.2976E-02
   793.14    0.2814E-02
   796.66    0.2665E-02
   800.17    0.2528E-02
   803.68    0.2402E-02
   807.20    0.2286E-02
   810.71    0.2179E-02
   814.22    0.2080E-02
   817.74    0.1988E-02
   821.25    0.1902E-02
   824.76    0.1822E-02
   828.28    0.1748E-02
   831.79    0.1679E-02
   835.30    0.1614E-02
   838.82    0.1553E-02
   842.33    0.1496E-02
   845.84    0.1442E-02
   849.36    0.1391E-02
   852.87    0.1344E-02
   856.38    0.1299E-02
   859.90    0.1257E-02
   863.41    0.1217E-02
   866.92    0.1179E-02
   870.44    0.1143E-02
   873.95    0.1109E-02
   877.46    0.1077E-02
   880.98    0.1047E-02
   884.49    0.1018E-02
   888.00    0.9903E-03
   891.52    0.9641E-03
   895.03    0.9391E-03
   898.54    0.9154E-03
   902.06    0.8927E-03
   905.57    0.8711E-03
   909.08    0.8505E-03
   912.60    0.8308E-03
   916.11    0.8119E-03
   919.62    0.7939E-03
   923.14    0.7767E-03
   926.65    0.7603E-03
   930.16    0.7445E-03
   933.68    0.7293E-03
   937.19    0.7148E-03
   940.70    0.7010E-03
   944.22    0.6876E-03
   947.73    0.6748E-03
   951.24    0.6626E-03
   954.76    0.6508E-03
   958.27    0.6395E-03
   961.78    0.6286E-03
   965.30    0.6181E-03
   968.81    0.6081E-03
   972.32    0.5985E-03
   975.84    0.5892E-03
   979.35    0.5802E-03
   982.86    0.5717E-03
   986.38    0.5634E-03
   989.89    0.5554E-03
   993.40    0.5478E-03
   996.92    0.5404E-03
  1000.43    0.5333E-03
  1003.94    0.5265E-03
  1007.46    0.5200E-03
  1010.97    0.5136E-03
  1014.48    0.5076E-03
  1018.00    0.5017E-03
  1021.51    0.4961E-03
  1025.02    0.4907E-03
  1028.53    0.4855E-03
  1032.05    0.4805E-03
  1035.56    0.4756E-03
  1039.07    0.4710E-03
  1042.59    0.4666E-03
  1046.10    0.4623E-03
  1049.61    0.4582E-03
  1053.13    0.4543E-03
  1056.64    0.4505E-03
  1060.15    0.4469E-03
  1063.67    0.4435E-03
  1067.18    0.4402E-03
  1070.69    0.4370E-03
  1074.21    0.4340E-03
  1077.72    0.4312E-03
  1081.23    0.4285E-03
  1084.75    0.4259E-03
  1088.26    0.4234E-03
  1091.77    0.4211E-03
  1095.29    0.4189E-03
  1098.80    0.4169E-03
  1102.31    0.4150E-03
  1105.83    0.4132E-03
  1109.34    0.4115E-03
  1112.85    0.4100E-03
  1116.37    0.4086E-03
  1119.88    0.4073E-03
  1123.39    0.4062E-03
  1126.91    0.4052E-03
  1130.42    0.4043E-03
  1133.93    0.4035E-03
  1137.45    0.4029E-03
  1140.96    0.4025E-03
  1144.47    0.4021E-03
  1147.99    0.4020E-03
  1151.50    0.4019E-03
  1155.01    0.4021E-03
  1158.53    0.4023E-03
  1162.04    0.4028E-03
  1165.55    0.4034E-03
  1169.07    0.4042E-03
  1172.58    0.4052E-03
  1176.09    0.4064E-03
  1179.61    0.4079E-03
  1183.12    0.4095E-03
  1186.63    0.4114E-03
  1190.15    0.4136E-03
  1193.66    0.4160E-03
  1197.17    0.4188E-03
  1200.69    0.4219E-03
  1204.20    0.4253E-03
  1207.71    0.4292E-03
  1211.23    0.4335E-03
  1214.74    0.4383E-03
  1218.25    0.4436E-03
  1221.77    0.4496E-03
  1225.28    0.4562E-03
  1228.79    0.4636E-03
  1232.31    0.4719E-03
  1235.82    0.4812E-03
  1239.33    0.4917E-03
  1242.85    0.5035E-03
  1246.36    0.5169E-03
  1249.87    0.5321E-03
  1253.39    0.5494E-03
  1256.90    0.5694E-03
  1260.41    0.5924E-03
  1263.93    0.6192E-03
  1267.44    0.6505E-03
  1270.95    0.6875E-03
  1274.47    0.7317E-03
  1277.98    0.7848E-03
  1281.49    0.8495E-03
  1285.01    0.9295E-03
  1288.52    0.1030E-02
  1292.03    0.1157E-02
  1295.55    0.1323E-02
  1299.06    0.1544E-02
  1302.57    0.1844E-02
  1306.09    0.2264E-02
  1309.60    0.2870E-02
  1313.11    0.3771E-02
  1316.63    0.5128E-02
  1320.14    0.7124E-02
  1323.65    0.9661E-02
  1327.17    0.1163E-01
  1330.68    0.1129E-01
  1334.19    0.9004E-02
  1337.71    0.6556E-02
  1341.22    0.4736E-02
  1344.73    0.3516E-02
  1348.25    0.2706E-02
  1351.76    0.2158E-02
  1355.27    0.1776E-02
  1358.79    0.1501E-02
  1362.30    0.1299E-02
  1365.81    0.1147E-02
  1369.33    0.1029E-02
  1372.84    0.9370E-03
  1376.35    0.8637E-03
  1379.87    0.8046E-03
  1383.38    0.7563E-03
  1386.89    0.7165E-03
  1390.41    0.6834E-03
  1393.92    0.6557E-03
  1397.43    0.6324E-03
  1400.95    0.6126E-03
  1404.46    0.5958E-03
  1407.97    0.5814E-03
  1411.49    0.5691E-03
  1415.00    0.5586E-03
  1418.51    0.5496E-03
  1422.03    0.5418E-03
  1425.54    0.5352E-03
  1429.05    0.5296E-03
  1432.57    0.5249E-03
  1436.08    0.5209E-03
  1439.59    0.5176E-03
  1443.11    0.5148E-03
  1446.62    0.5127E-03
  1450.13    0.5110E-03
  1453.65    0.5097E-03
  1457.16    0.5089E-03
  1460.67    0.5084E-03
  1464.19    0.5083E-03
  1467.70    0.5085E-03
  1471.21    0.5089E-03
  1474.73    0.5097E-03
  1478.24    0.5107E-03
  1481.75    0.5119E-03
  1485.27    0.5134E-03
  1488.78    0.5150E-03
  1492.29    0.5169E-03
  1495.81    0.5190E-03
  1499.32    0.5212E-03
  1502.83    0.5237E-03
  1506.35    0.5263E-03
  1509.86    0.5290E-03
  1513.37    0.5320E-03
  1516.89    0.5351E-03
  1520.40    0.5383E-03
  1523.91    0.5417E-03
  1527.43    0.5452E-03
  1530.94    0.5489E-03
  1534.45    0.5528E-03
  1537.97    0.5567E-03
  1541.48    0.5609E-03
  1544.99    0.5651E-03
  1548.51    0.5695E-03
  1552.02    0.5741E-03
  1555.53    0.5788E-03
  1559.05    0.5836E-03
  1562.56    0.5886E-03
  1566.07    0.5937E-03
  1569.58    0.5990E-03
  1573.10    0.6044E-03
  1576.61    0.6100E-03
  1580.12    0.6157E-03
  1583.64    0.6215E-03
  1587.15    0.6275E-03
  1590.66    0.6337E-03
  1594.18    0.6400E-03
  1597.69    0.6465E-03
  1601.20    0.6532E-03
  1604.72    0.6600E-03
  1608.23    0.6670E-03
  1611.74    0.6741E-03
  1615.26    0.6815E-03
  1618.77    0.6890E-03
  1622.28    0.6967E-03
  1625.80    0.7045E-03
  1629.31    0.7126E-03
  1632.82    0.7209E-03
  1636.34    0.7294E-03
  1639.85    0.7380E-03
  1643.36    0.7469E-03
  1646.88    0.7560E-03
  1650.39    0.7653E-03
  1653.90    0.7749E-03
  1657.42    0.7846E-03
  1660.93    0.7946E-03
  1664.44    0.8049E-03
  1667.96    0.8154E-03
  1671.47    0.8262E-03
  1674.98    0.8372E-03
  1678.50    0.8485E-03
  1682.01    0.8601E-03
  1685.52    0.8720E-03
  1689.04    0.8842E-03
  1692.55    0.8966E-03
  1696.06    0.9094E-03
  1699.58    0.9226E-03
  1703.09    0.9360E-03
  1706.60    0.9499E-03
  1710.12    0.9640E-03
  1713.63    0.9786E-03
  1717.14    0.9935E-03
  1720.66    0.1009E-02
  1724.17    0.1025E-02
  1727.68    0.1041E-02
  1731.20    0.1057E-02
  1734.71    0.1074E-02
  1738.22    0.1092E-02
  1741.74    0.1110E-02
  1745.25    0.1128E-02
  1748.76    0.1147E-02
  1752.28    0.1167E-02
  1755.79    0.1187E-02
  1759.30    0.1208E-02
  1762.82    0.1229E-02
  1766.33    0.1251E-02
  1769.84    0.1273E-02
  1773.36    0.1297E-02
  1776.87    0.1321E-02
  1780.38    0.1345E-02
  1783.90    0.1371E-02
  1787.41    0.1397E-02
  1790.92    0.1424E-02
  1794.44    0.1452E-02
  1797.95    0.1481E-02
  1801.46    0.1511E-02
  1804.98    0.1541E-02
  1808.49    0.1573E-02
  1812.00    0.1606E-02
  1815.52    0.1640E-02
  1819.03    0.1675E-02
  1822.54    0.1711E-02
  1826.06    0.1749E-02
  1829.57    0.1788E-02
  1833.08    0.1828E-02
  1836.60    0.1870E-02
  1840.11    0.1913E-02
  1843.62    0.1958E-02
  1847.14    0.2005E-02
  1850.65    0.2053E-02
  1854.16    0.2103E-02
  1857.68    0.2156E-02
  1861.19    0.2210E-02
  1864.70    0.2267E-02
  1868.22    0.2326E-02
  1871.73    0.2387E-02
  1875.24    0.2451E-02
  1878.76    0.2518E-02
  1882.27    0.2588E-02
  1885.78    0.2661E-02
  1889.30    0.2737E-02
  1892.81    0.2817E-02
  1896.32    0.2900E-02
  1899.84    0.2988E-02
  1903.35    0.3079E-02
  1906.86    0.3175E-02
  1910.38    0.3277E-02
  1913.89    0.3383E-02
  1917.40    0.3495E-02
  1920.92    0.3613E-02
  1924.43    0.3737E-02
  1927.94    0.3868E-02
  1931.46    0.4007E-02
  1934.97    0.4154E-02
  1938.48    0.4309E-02
  1942.00    0.4475E-02
  1945.51    0.4650E-02
  1949.02    0.4837E-02
  1952.54    0.5036E-02
  1956.05    0.5248E-02
  1959.56    0.5475E-02
  1963.08    0.5718E-02
  1966.59    0.5980E-02
  1970.10    0.6260E-02
  1973.62    0.6563E-02
  1977.13    0.6890E-02
  1980.64    0.7244E-02
  1984.16    0.7628E-02
  1987.67    0.8047E-02
  1991.18    0.8504E-02
  1994.70    0.9004E-02
  1998.21    0.9554E-02
  2001.72    0.1016E-01
  2005.24    0.1083E-01
  2008.75    0.1158E-01
  2012.26    0.1241E-01
  2015.78    0.1335E-01
  2019.29    0.1441E-01
  2022.80    0.1561E-01
  2026.32    0.1699E-01
  2029.83    0.1857E-01
  2033.34    0.2041E-01
  2036.86    0.2256E-01
  2040.37    0.2511E-01
  2043.88    0.2815E-01
  2047.40    0.3184E-01
  2050.91    0.3638E-01
  2054.42    0.4203E-01
  2057.94    0.4922E-01
  2061.45    0.5854E-01
  2064.96    0.7092E-01
  2068.48    0.8779E-01
  2071.99    0.1115    
  2075.50    0.1457    
  2079.02    0.1967    
  2082.53    0.2733    
  2086.04    0.3835    
  2089.56    0.5134    
  2093.07    0.5912    
  2096.58    0.5428    
  2100.10    0.4183    
  2103.61    0.3022    
  2107.12    0.2197    
  2110.63    0.1654    
  2114.15    0.1299    
  2117.66    0.1065    
  2121.17    0.9082E-01
  2124.69    0.8043E-01
  2128.20    0.7377E-01
  2131.71    0.6992E-01
  2135.23    0.6834E-01
  2138.74    0.6876E-01
  2142.25    0.7109E-01
  2145.77    0.7542E-01
  2149.28    0.8203E-01
  2152.79    0.9142E-01
  2156.31    0.1044    
  2159.82    0.1221    
  2163.33    0.1466    
  2166.85    0.1811    
  2170.36    0.2304    
  2173.87    0.3030    
  2177.39    0.4122    
  2180.90    0.5771    
  2184.41    0.8117    
  2187.93     1.076    
  2191.44     1.205    
  2194.95     1.071    
  2198.47    0.8063    
  2201.98    0.5716    
  2205.49    0.4068    
  2209.01    0.2972    
  2212.52    0.2240    
  2216.03    0.1737    
  2219.55    0.1382    
  2223.06    0.1123    
  2226.57    0.9304E-01
  2230.09    0.7829E-01
  2233.60    0.6677E-01
  2237.11    0.5763E-01
  2240.63    0.5025E-01
  2244.14    0.4421E-01
  2247.65    0.3921E-01
  2251.17    0.3502E-01
  2254.68    0.3148E-01
  2258.19    0.2846E-01
  2261.71    0.2586E-01
  2265.22    0.2360E-01
  2268.73    0.2164E-01
  2272.25    0.1991E-01
  2275.76    0.1839E-01
  2279.27    0.1704E-01
  2282.79    0.1583E-01
  2286.30    0.1475E-01
  2289.81    0.1378E-01
  2293.33    0.1291E-01
  2296.84    0.1212E-01
  2300.35    0.1140E-01
  2303.87    0.1074E-01
  2307.38    0.1014E-01
  2310.89    0.9589E-02
  2314.41    0.9084E-02
  2317.92    0.8618E-02
  2321.43    0.8189E-02
  2324.95    0.7791E-02
  2328.46    0.7422E-02
  2331.97    0.7079E-02
  2335.49    0.6760E-02
  2339.00    0.6463E-02
  2342.51    0.6185E-02
  2346.03    0.5925E-02
  2349.54    0.5682E-02
  2353.05    0.5453E-02
  2356.57    0.5239E-02
  2360.08    0.5037E-02
  2363.59    0.4847E-02
  2367.11    0.4667E-02
  2370.62    0.4498E-02
  2374.13    0.4338E-02
  2377.65    0.4186E-02
  2381.16    0.4043E-02
  2384.67    0.3906E-02
  2388.19    0.3777E-02
  2391.70    0.3654E-02
  2395.21    0.3537E-02
  2398.73    0.3426E-02
  2402.24    0.3320E-02
  2405.75    0.3219E-02
  2409.27    0.3123E-02
  2412.78    0.3031E-02
  2416.29    0.2943E-02
  2419.81    0.2859E-02
  2423.32    0.2779E-02
  2426.83    0.2702E-02
  2430.35    0.2628E-02
  2433.86    0.2557E-02
  2437.37    0.2489E-02
  2440.89    0.2424E-02
  2444.40    0.2361E-02
  2447.91    0.2301E-02
  2451.43    0.2243E-02
  2454.94    0.2188E-02
  2458.45    0.2134E-02
  2461.97    0.2083E-02
  2465.48    0.2033E-02
  2468.99    0.1985E-02
  2472.51    0.1939E-02
  2476.02    0.1894E-02
  2479.53    0.1851E-02
  2483.05    0.1810E-02
  2486.56    0.1770E-02
  2490.07    0.1731E-02
  2493.59    0.1693E-02
  2497.10    0.1657E-02
  2500.61    0.1622E-02
  2504.13    0.1588E-02
  2507.64    0.1555E-02
  2511.15    0.1523E-02
  2514.67    0.1492E-02
  2518.18    0.1463E-02
  2521.69    0.1434E-02
  2525.21    0.1405E-02
  2528.72    0.1378E-02
  2532.23    0.1352E-02
  2535.75    0.1326E-02
  2539.26    0.1301E-02
  2542.77    0.1277E-02
  2546.29    0.1253E-02
  2549.80    0.1230E-02
  2553.31    0.1208E-02
  2556.83    0.1186E-02
  2560.34    0.1165E-02
  2563.85    0.1145E-02
  2567.37    0.1125E-02
  2570.88    0.1105E-02
  2574.39    0.1086E-02
  2577.91    0.1068E-02
  2581.42    0.1050E-02
  2584.93    0.1033E-02
  2588.45    0.1016E-02
  2591.96    0.9989E-03
  2595.47    0.9827E-03
  2598.99    0.9669E-03
  2602.50    0.9515E-03
  2606.01    0.9365E-03
  2609.53    0.9218E-03
  2613.04    0.9075E-03
  2616.55    0.8935E-03
  2620.07    0.8799E-03
  2623.58    0.8666E-03
  2627.09    0.8536E-03
  2630.61    0.8408E-03
  2634.12    0.8284E-03
  2637.63    0.8163E-03
  2641.15    0.8044E-03
  2644.66    0.7928E-03
  2648.17    0.7814E-03
  2651.68    0.7703E-03
  2655.20    0.7595E-03
  2658.71    0.7489E-03
  2662.22    0.7385E-03
  2665.74    0.7283E-03
  2669.25    0.7184E-03
  2672.76    0.7086E-03
  2676.28    0.6991E-03
  2679.79    0.6897E-03
  2683.30    0.6806E-03
  2686.82    0.6716E-03
  2690.33    0.6629E-03
  2693.84    0.6543E-03
  2697.36    0.6458E-03
  2700.87    0.6376E-03
  2704.38    0.6295E-03
  2707.90    0.6216E-03
  2711.41    0.6138E-03
  2714.92    0.6062E-03
  2718.44    0.5987E-03
  2721.95    0.5913E-03
  2725.46    0.5842E-03
  2728.98    0.5771E-03
  2732.49    0.5702E-03
  2736.00    0.5634E-03
  2739.52    0.5567E-03
  2743.03    0.5502E-03
  2746.54    0.5438E-03
  2750.06    0.5375E-03
  2753.57    0.5313E-03
  2757.08    0.5252E-03
  2760.60    0.5193E-03
  2764.11    0.5134E-03
  2767.62    0.5077E-03
  2771.14    0.5020E-03
  2774.65    0.4965E-03
  2778.16    0.4910E-03
  2781.68    0.4857E-03
  2785.19    0.4804E-03
  2788.70    0.4753E-03
  2792.22    0.4702E-03
  2795.73    0.4652E-03
  2799.24    0.4603E-03
  2802.76    0.4555E-03
  2806.27    0.4507E-03
  2809.78    0.4461E-03
  2813.30    0.4415E-03
  2816.81    0.4370E-03
  2820.32    0.4326E-03
  2823.84    0.4282E-03
  2827.35    0.4239E-03
  2830.86    0.4197E-03
  2834.38    0.4156E-03
  2837.89    0.4115E-03
  2841.40    0.4075E-03
  2844.92    0.4036E-03
  2848.43    0.3997E-03
  2851.94    0.3959E-03
  2855.46    0.3922E-03
  2858.97    0.3885E-03
  2862.48    0.3848E-03
  2866.00    0.3813E-03
  2869.51    0.3778E-03
  2873.02    0.3743E-03
  2876.54    0.3709E-03
  2880.05    0.3676E-03
  2883.56    0.3643E-03
  2887.08    0.3610E-03
  2890.59    0.3578E-03
  2894.10    0.3547E-03
  2897.62    0.3516E-03
  2901.13    0.3486E-03
  2904.64    0.3456E-03
  2908.16    0.3426E-03
  2911.67    0.3397E-03
  2915.18    0.3369E-03
  2918.70    0.3341E-03
  2922.21    0.3313E-03
  2925.72    0.3286E-03
  2929.24    0.3259E-03
  2932.75    0.3233E-03
  2936.26    0.3207E-03
  2939.78    0.3181E-03
  2943.29    0.3156E-03
  2946.80    0.3132E-03
  2950.32    0.3107E-03
  2953.83    0.3083E-03
  2957.34    0.3060E-03
  2960.86    0.3037E-03
  2964.37    0.3014E-03
  2967.88    0.2992E-03
  2971.40    0.2970E-03
  2974.91    0.2948E-03
  2978.42    0.2927E-03
  2981.94    0.2906E-03
  2985.45    0.2885E-03
  2988.96    0.2865E-03
  2992.48    0.2845E-03
  2995.99    0.2825E-03
  2999.50    0.2806E-03
  3003.02    0.2787E-03
  3006.53    0.2769E-03
  3010.04    0.2750E-03
  3013.56    0.2733E-03
  3017.07    0.2715E-03
  3020.58    0.2698E-03
  3024.10    0.2681E-03
  3027.61    0.2664E-03
  3031.12    0.2648E-03
  3034.64    0.2632E-03
  3038.15    0.2617E-03
  3041.66    0.2601E-03
  3045.18    0.2586E-03
  3048.69    0.2572E-03
  3052.20    0.2557E-03
  3055.72    0.2543E-03
  3059.23    0.2530E-03
  3062.74    0.2516E-03
  3066.26    0.2503E-03
  3069.77    0.2490E-03
  3073.28    0.2478E-03
  3076.80    0.2466E-03
  3080.31    0.2454E-03
  3083.82    0.2443E-03
  3087.34    0.2432E-03
  3090.85    0.2421E-03
  3094.36    0.2411E-03
  3097.88    0.2401E-03
  3101.39    0.2391E-03
  3104.90    0.2382E-03
  3108.42    0.2373E-03
  3111.93    0.2364E-03
  3115.44    0.2356E-03
  3118.96    0.2348E-03
  3122.47    0.2341E-03
  3125.98    0.2334E-03
  3129.50    0.2327E-03
  3133.01    0.2321E-03
  3136.52    0.2315E-03
  3140.04    0.2310E-03
  3143.55    0.2305E-03
  3147.06    0.2300E-03
  3150.58    0.2296E-03
  3154.09    0.2293E-03
  3157.60    0.2290E-03
  3161.12    0.2287E-03
  3164.63    0.2285E-03
  3168.14    0.2284E-03
  3171.66    0.2283E-03
  3175.17    0.2283E-03
  3178.68    0.2283E-03
  3182.20    0.2284E-03
  3185.71    0.2286E-03
  3189.22    0.2288E-03
  3192.73    0.2292E-03
  3196.25    0.2295E-03
  3199.76    0.2300E-03
  3203.27    0.2306E-03
  3206.79    0.2312E-03
  3210.30    0.2320E-03
  3213.81    0.2328E-03
  3217.33    0.2337E-03
  3220.84    0.2348E-03
  3224.35    0.2360E-03
  3227.87    0.2373E-03
  3231.38    0.2387E-03
  3234.89    0.2402E-03
  3238.41    0.2420E-03
  3241.92    0.2438E-03
  3245.43    0.2459E-03
  3248.95    0.2481E-03
  3252.46    0.2505E-03
  3255.97    0.2531E-03
  3259.49    0.2559E-03
  3263.00    0.2590E-03
  3266.51    0.2624E-03
  3270.03    0.2660E-03
  3273.54    0.2699E-03
  3277.05    0.2741E-03
  3280.57    0.2787E-03
  3284.08    0.2837E-03
  3287.59    0.2891E-03
  3291.11    0.2950E-03
  3294.62    0.3014E-03
  3298.13    0.3083E-03
  3301.65    0.3158E-03
  3305.16    0.3241E-03
  3308.67    0.3330E-03
  3312.19    0.3428E-03
  3315.70    0.3536E-03
  3319.21    0.3653E-03
  3322.73    0.3782E-03
  3326.24    0.3924E-03
  3329.75    0.4081E-03
  3333.27    0.4255E-03
  3336.78    0.4447E-03
  3340.29    0.4661E-03
  3343.81    0.4900E-03
  3347.32    0.5168E-03
  3350.83    0.5468E-03
  3354.35    0.5808E-03
  3357.86    0.6192E-03
  3361.37    0.6631E-03
  3364.89    0.7133E-03
  3368.40    0.7711E-03
  3371.91    0.8382E-03
  3375.43    0.9165E-03
  3378.94    0.1009E-02
  3382.45    0.1118E-02
  3385.97    0.1249E-02
  3389.48    0.1408E-02
  3392.99    0.1603E-02
  3396.51    0.1845E-02
  3400.02    0.2151E-02
  3403.53    0.2544E-02
  3407.05    0.3060E-02
  3410.56    0.3751E-02
  3414.07    0.4704E-02
  3417.59    0.6053E-02
  3421.10    0.8024E-02
  3424.61    0.1097E-01
  3428.13    0.1541E-01
  3431.64    0.2174E-01
  3435.15    0.2887E-01
  3438.67    0.3245E-01
  3442.18    0.2892E-01
  3445.69    0.2179E-01
  3449.21    0.1546E-01
  3452.72    0.1100E-01
  3456.23    0.8039E-02
  3459.75    0.6061E-02
  3463.26    0.4705E-02
  3466.77    0.3749E-02
  3470.29    0.3054E-02
  3473.80    0.2536E-02
  3477.31    0.2140E-02
  3480.83    0.1833E-02
  3484.34    0.1589E-02
  3487.85    0.1392E-02
  3491.37    0.1232E-02
  3494.88    0.1099E-02
  3498.39    0.9884E-03
  3501.91    0.8949E-03
  3505.42    0.8152E-03
  3508.93    0.7468E-03
  3512.45    0.6876E-03
