
 ------------------------------------------------------------
     normal          Raman Scattering Plot
 ------------------------------------------------------------
 Excitation wavelength  514.50 nm
 Convolution lineshape is lorentzian  
 FWHM   20.00  1/cm
 ------------------------------------------------------------
 ------------------------------------------------------------
 # of frequencies :    48
 ------------------------------------------------------------
 #  freq [ 1/cm]  S [Ang**4/amu]
 ------------------------------------------------------------
   2    95.73        0.2412
   3   111.60        0.8922
   4   136.89        0.2215
   5   237.75        0.0685
   6   320.43        1.8147
   7   361.38        1.1735
   8   487.26        0.7876
   9   562.50        9.9868
  10   728.87        0.5485
  11   795.02        0.3654
  12   885.50        0.9171
  13   904.75        4.5718
  14   928.05        0.2895
  15   943.87        1.1004
  16   998.77        0.7522
  17  1009.62        0.8367
  18  1050.63        3.6850
  19  1078.47        0.5485
  20  1116.80        0.0019
  21  1144.55        1.4664
  22  1224.96        1.8906
  23  1274.80        0.5345
  24  1294.06        0.9564
  25  1302.58       28.7146
  26  1310.44       18.3512
  27  1343.31        1.2976
  28  1371.88        1.9518
  29  1417.06        1.9646
  30  1448.51       18.1932
  31  1473.13        5.8218
  32  1487.20       29.6035
  33  1494.84        8.2269
  34  1503.29       19.7203
  35  1508.16        6.3804
  36  1643.41        4.4417
  37  2944.66      199.2253
  38  2948.93       30.8837
  39  2958.57       93.7611
  40  2962.58      104.2166
  41  2965.06      191.8305
  42  2978.70       42.2095
  43  3001.22       15.0265
  44  3027.88       34.8781
  45  3032.50      116.9762
  46  3065.44       51.8547
  47  3077.70      151.1333
  48  3156.30      115.8464
 ------------------------------------------------------------
   -56.72    0.3262E-03
   -53.44    0.3379E-03
   -50.16    0.3504E-03
   -46.88    0.3637E-03
   -43.60    0.3778E-03
   -40.32    0.3928E-03
   -37.04    0.4088E-03
   -33.76    0.4258E-03
   -30.48    0.4441E-03
   -27.20    0.4637E-03
   -23.92    0.4847E-03
   -20.65    0.5074E-03
   -17.37    0.5317E-03
   -14.09    0.5580E-03
   -10.81    0.5865E-03
    -7.53    0.6174E-03
    -4.25    0.6510E-03
    -0.97    0.6876E-03
     2.31    0.7276E-03
     5.59    0.7714E-03
     8.87    0.8196E-03
    12.15    0.8728E-03
    15.43    0.9317E-03
    18.71    0.9971E-03
    21.99    0.1070E-02
    25.27    0.1152E-02
    28.55    0.1244E-02
    31.83    0.1348E-02
    35.11    0.1467E-02
    38.39    0.1603E-02
    41.67    0.1760E-02
    44.95    0.1942E-02
    48.23    0.2156E-02
    51.51    0.2409E-02
    54.79    0.2711E-02
    58.06    0.3076E-02
    61.34    0.3524E-02
    64.62    0.4081E-02
    67.90    0.4788E-02
    71.18    0.5701E-02
    74.46    0.6908E-02
    77.74    0.8545E-02
    81.02    0.1082E-01
    84.30    0.1403E-01
    87.58    0.1852E-01
    90.86    0.2431E-01
    94.14    0.3025E-01
    97.42    0.3452E-01
   100.70    0.3783E-01
   103.98    0.4304E-01
   107.26    0.5069E-01
   110.54    0.5621E-01
   113.82    0.5331E-01
   117.10    0.4348E-01
   120.38    0.3321E-01
   123.66    0.2568E-01
   126.94    0.2105E-01
   130.22    0.1870E-01
   133.50    0.1770E-01
   136.77    0.1661E-01
   140.05    0.1438E-01
   143.33    0.1154E-01
   146.61    0.9037E-02
   149.89    0.7153E-02
   153.17    0.5790E-02
   156.45    0.4796E-02
   159.73    0.4055E-02
   163.01    0.3489E-02
   166.29    0.3046E-02
   169.57    0.2694E-02
   172.85    0.2408E-02
   176.13    0.2174E-02
   179.41    0.1980E-02
   182.69    0.1817E-02
   185.97    0.1681E-02
   189.25    0.1565E-02
   192.53    0.1468E-02
   195.81    0.1387E-02
   199.09    0.1319E-02
   202.37    0.1264E-02
   205.65    0.1222E-02
   208.93    0.1192E-02
   212.20    0.1177E-02
   215.48    0.1177E-02
   218.76    0.1199E-02
   222.04    0.1250E-02
   225.32    0.1341E-02
   228.60    0.1487E-02
   231.88    0.1689E-02
   235.16    0.1889E-02
   238.44    0.1949E-02
   241.72    0.1810E-02
   245.00    0.1595E-02
   248.28    0.1414E-02
   251.56    0.1294E-02
   254.84    0.1224E-02
   258.12    0.1192E-02
   261.40    0.1188E-02
   264.68    0.1207E-02
   267.96    0.1248E-02
   271.24    0.1310E-02
   274.52    0.1395E-02
   277.80    0.1507E-02
   281.08    0.1653E-02
   284.36    0.1842E-02
   287.64    0.2088E-02
   290.91    0.2413E-02
   294.19    0.2849E-02
   297.47    0.3446E-02
   300.75    0.4282E-02
   304.03    0.5482E-02
   307.31    0.7237E-02
   310.59    0.9789E-02
   313.87    0.1325E-01
   317.15    0.1696E-01
   320.43    0.1877E-01
   323.71    0.1712E-01
   326.99    0.1359E-01
   330.27    0.1031E-01
   333.55    0.7996E-02
   336.83    0.6538E-02
   340.11    0.5734E-02
   343.39    0.5447E-02
   346.67    0.5638E-02
   349.95    0.6351E-02
   353.23    0.7653E-02
   356.51    0.9421E-02
   359.79    0.1085E-01
   363.07    0.1068E-01
   366.35    0.8904E-02
   369.62    0.6798E-02
   372.90    0.5109E-02
   376.18    0.3915E-02
   379.46    0.3093E-02
   382.74    0.2519E-02
   386.02    0.2109E-02
   389.30    0.1809E-02
   392.58    0.1584E-02
   395.86    0.1413E-02
   399.14    0.1279E-02
   402.42    0.1174E-02
   405.70    0.1091E-02
   408.98    0.1025E-02
   412.26    0.9732E-03
   415.54    0.9323E-03
   418.82    0.9009E-03
   422.10    0.8779E-03
   425.38    0.8625E-03
   428.66    0.8540E-03
   431.94    0.8523E-03
   435.22    0.8573E-03
   438.50    0.8696E-03
   441.78    0.8896E-03
   445.06    0.9185E-03
   448.33    0.9580E-03
   451.61    0.1010E-02
   454.89    0.1080E-02
   458.17    0.1171E-02
   461.45    0.1292E-02
   464.73    0.1457E-02
   468.01    0.1685E-02
   471.29    0.2008E-02
   474.57    0.2475E-02
   477.85    0.3143E-02
   481.13    0.4028E-02
   484.41    0.4926E-02
   487.69    0.5299E-02
   490.97    0.4855E-02
   494.25    0.4044E-02
   497.53    0.3341E-02
   500.81    0.2871E-02
   504.09    0.2603E-02
   507.37    0.2481E-02
   510.65    0.2469E-02
   513.93    0.2547E-02
   517.21    0.2706E-02
   520.49    0.2949E-02
   523.76    0.3288E-02
   527.04    0.3743E-02
   530.32    0.4351E-02
   533.60    0.5167E-02
   536.88    0.6276E-02
   540.16    0.7813E-02
   543.44    0.9990E-02
   546.72    0.1315E-01
   550.00    0.1779E-01
   553.28    0.2452E-01
   556.56    0.3343E-01
   559.84    0.4216E-01
   563.12    0.4496E-01
   566.40    0.3920E-01
   569.68    0.2985E-01
   572.96    0.2166E-01
   576.24    0.1576E-01
   579.52    0.1173E-01
   582.80    0.8971E-02
   586.08    0.7043E-02
   589.36    0.5661E-02
   592.64    0.4645E-02
   595.92    0.3879E-02
   599.20    0.3290E-02
   602.47    0.2829E-02
   605.75    0.2461E-02
   609.03    0.2163E-02
   612.31    0.1919E-02
   615.59    0.1717E-02
   618.87    0.1548E-02
   622.15    0.1405E-02
   625.43    0.1284E-02
   628.71    0.1179E-02
   631.99    0.1089E-02
   635.27    0.1011E-02
   638.55    0.9425E-03
   641.83    0.8828E-03
   645.11    0.8303E-03
   648.39    0.7841E-03
   651.67    0.7434E-03
   654.95    0.7075E-03
   658.23    0.6759E-03
   661.51    0.6482E-03
   664.79    0.6240E-03
   668.07    0.6031E-03
   671.35    0.5854E-03
   674.63    0.5708E-03
   677.91    0.5592E-03
   681.18    0.5509E-03
   684.46    0.5460E-03
   687.74    0.5451E-03
   691.02    0.5488E-03
   694.30    0.5581E-03
   697.58    0.5747E-03
   700.86    0.6011E-03
   704.14    0.6409E-03
   707.42    0.7002E-03
   710.70    0.7886E-03
   713.98    0.9209E-03
   717.26    0.1119E-02
   720.54    0.1405E-02
   723.82    0.1766E-02
   727.10    0.2068E-02
   730.38    0.2081E-02
   733.66    0.1790E-02
   736.94    0.1422E-02
   740.22    0.1125E-02
   743.50    0.9175E-03
   746.78    0.7779E-03
   750.06    0.6846E-03
   753.34    0.6223E-03
   756.61    0.5815E-03
   759.89    0.5566E-03
   763.17    0.5447E-03
   766.45    0.5444E-03
   769.73    0.5562E-03
   773.01    0.5824E-03
   776.29    0.6272E-03
   779.57    0.6985E-03
   782.85    0.8083E-03
   786.13    0.9701E-03
   789.41    0.1183E-02
   792.69    0.1382E-02
   795.97    0.1430E-02
   799.25    0.1283E-02
   802.53    0.1068E-02
   805.81    0.8882E-03
   809.09    0.7633E-03
   812.37    0.6826E-03
   815.65    0.6324E-03
   818.93    0.6030E-03
   822.21    0.5883E-03
   825.49    0.5845E-03
   828.77    0.5896E-03
   832.05    0.6024E-03
   835.32    0.6226E-03
   838.60    0.6503E-03
   841.88    0.6862E-03
   845.16    0.7315E-03
   848.44    0.7882E-03
   851.72    0.8589E-03
   855.00    0.9478E-03
   858.28    0.1060E-02
   861.56    0.1206E-02
   864.84    0.1396E-02
   868.12    0.1653E-02
   871.40    0.2004E-02
   874.68    0.2495E-02
   877.96    0.3167E-02
   881.24    0.4007E-02
   884.52    0.4838E-02
   887.80    0.5453E-02
   891.08    0.6053E-02
   894.36    0.7092E-02
   897.64    0.8817E-02
   900.92    0.1093E-01
   904.20    0.1221E-01
   907.48    0.1141E-01
   910.76    0.9208E-02
   914.03    0.7036E-02
   917.31    0.5469E-02
   920.59    0.4489E-02
   923.87    0.3939E-02
   927.15    0.3640E-02
   930.43    0.3452E-02
   933.71    0.3384E-02
   936.99    0.3512E-02
   940.27    0.3777E-02
   943.55    0.3874E-02
   946.83    0.3530E-02
   950.11    0.2917E-02
   953.39    0.2344E-02
   956.67    0.1921E-02
   959.95    0.1633E-02
   963.23    0.1443E-02
   966.51    0.1324E-02
   969.79    0.1257E-02
   973.07    0.1234E-02
   976.35    0.1253E-02
   979.63    0.1319E-02
   982.91    0.1442E-02
   986.19    0.1644E-02
   989.46    0.1953E-02
   992.74    0.2384E-02
   996.02    0.2872E-02
   999.30    0.3234E-02
  1002.58    0.3384E-02
  1005.86    0.3450E-02
  1009.14    0.3413E-02
  1012.42    0.3132E-02
  1015.70    0.2713E-02
  1018.98    0.2368E-02
  1022.26    0.2178E-02
  1025.54    0.2144E-02
  1028.82    0.2258E-02
  1032.10    0.2535E-02
  1035.38    0.3021E-02
  1038.66    0.3795E-02
  1041.94    0.4948E-02
  1045.22    0.6455E-02
  1048.50    0.7818E-02
  1051.78    0.8050E-02
  1055.06    0.6936E-02
  1058.34    0.5406E-02
  1061.62    0.4158E-02
  1064.90    0.3323E-02
  1068.17    0.2832E-02
  1071.45    0.2597E-02
  1074.73    0.2517E-02
  1078.01    0.2431E-02
  1081.29    0.2196E-02
  1084.57    0.1867E-02
  1087.85    0.1570E-02
  1091.13    0.1348E-02
  1094.41    0.1193E-02
  1097.69    0.1087E-02
  1100.97    0.1017E-02
  1104.25    0.9741E-03
  1107.53    0.9523E-03
  1110.81    0.9498E-03
  1114.09    0.9664E-03
  1117.37    0.1004E-02
  1120.65    0.1067E-02
  1123.93    0.1166E-02
  1127.21    0.1316E-02
  1130.49    0.1542E-02
  1133.77    0.1880E-02
  1137.05    0.2356E-02
  1140.33    0.2918E-02
  1143.61    0.3306E-02
  1146.88    0.3199E-02
  1150.16    0.2706E-02
  1153.44    0.2179E-02
  1156.72    0.1779E-02
  1160.00    0.1509E-02
  1163.28    0.1333E-02
  1166.56    0.1222E-02
  1169.84    0.1153E-02
  1173.12    0.1115E-02
  1176.40    0.1100E-02
  1179.68    0.1102E-02
  1182.96    0.1119E-02
  1186.24    0.1151E-02
  1189.52    0.1198E-02
  1192.80    0.1261E-02
  1196.08    0.1345E-02
  1199.36    0.1456E-02
  1202.64    0.1602E-02
  1205.92    0.1800E-02
  1209.20    0.2073E-02
  1212.48    0.2457E-02
  1215.76    0.2997E-02
  1219.04    0.3699E-02
  1222.32    0.4396E-02
  1225.59    0.4682E-02
  1228.87    0.4380E-02
  1232.15    0.3843E-02
  1235.43    0.3408E-02
  1238.71    0.3155E-02
  1241.99    0.3060E-02
  1245.27    0.3088E-02
  1248.55    0.3214E-02
  1251.83    0.3431E-02
  1255.11    0.3740E-02
  1258.39    0.4154E-02
  1261.67    0.4699E-02
  1264.95    0.5410E-02
  1268.23    0.6332E-02
  1271.51    0.7492E-02
  1274.79    0.8875E-02
  1278.07    0.1054E-01
  1281.35    0.1277E-01
  1284.63    0.1599E-01
  1287.91    0.2070E-01
  1291.19    0.2751E-01
  1294.47    0.3699E-01
  1297.75    0.4886E-01
  1301.02    0.6005E-01
  1304.30    0.6506E-01
  1307.58    0.6284E-01
  1310.86    0.5564E-01
  1314.14    0.4493E-01
  1317.42    0.3396E-01
  1320.70    0.2530E-01
  1323.98    0.1920E-01
  1327.26    0.1507E-01
  1330.54    0.1229E-01
  1333.82    0.1046E-01
  1337.10    0.9316E-02
  1340.38    0.8581E-02
  1343.66    0.7904E-02
  1346.94    0.7077E-02
  1350.22    0.6250E-02
  1353.50    0.5620E-02
  1356.78    0.5242E-02
  1360.06    0.5118E-02
  1363.34    0.5244E-02
  1366.62    0.5579E-02
  1369.90    0.5906E-02
  1373.18    0.5841E-02
  1376.46    0.5318E-02
  1379.73    0.4690E-02
  1383.01    0.4203E-02
  1386.29    0.3898E-02
  1389.57    0.3744E-02
  1392.85    0.3713E-02
  1396.13    0.3791E-02
  1399.41    0.3981E-02
  1402.69    0.4303E-02
  1405.97    0.4791E-02
  1409.25    0.5484E-02
  1412.53    0.6355E-02
  1415.81    0.7177E-02
  1419.09    0.7643E-02
  1422.37    0.7860E-02
  1425.65    0.8259E-02
  1428.93    0.9141E-02
  1432.21    0.1070E-01
  1435.49    0.1316E-01
  1438.77    0.1684E-01
  1442.05    0.2189E-01
  1445.33    0.2732E-01
  1448.61    0.3023E-01
  1451.89    0.2860E-01
  1455.17    0.2477E-01
  1458.44    0.2173E-01
  1461.72    0.2055E-01
  1465.00    0.2129E-01
  1468.28    0.2377E-01
  1471.56    0.2746E-01
  1474.84    0.3174E-01
  1478.12    0.3717E-01
  1481.40    0.4492E-01
  1484.68    0.5367E-01
  1487.96    0.5879E-01
  1491.24    0.5826E-01
  1494.52    0.5557E-01
  1497.80    0.5356E-01
  1501.08    0.5231E-01
  1504.36    0.4916E-01
  1507.64    0.4235E-01
  1510.92    0.3368E-01
  1514.20    0.2563E-01
  1517.48    0.1940E-01
  1520.76    0.1495E-01
  1524.04    0.1180E-01
  1527.32    0.9550E-02
  1530.60    0.7894E-02
  1533.87    0.6647E-02
  1537.15    0.5686E-02
  1540.43    0.4929E-02
  1543.71    0.4323E-02
  1546.99    0.3830E-02
  1550.27    0.3424E-02
  1553.55    0.3085E-02
  1556.83    0.2799E-02
  1560.11    0.2556E-02
  1563.39    0.2349E-02
  1566.67    0.2170E-02
  1569.95    0.2015E-02
  1573.23    0.1881E-02
  1576.51    0.1765E-02
  1579.79    0.1664E-02
  1583.07    0.1577E-02
  1586.35    0.1502E-02
  1589.63    0.1439E-02
  1592.91    0.1387E-02
  1596.19    0.1347E-02
  1599.47    0.1318E-02
  1602.75    0.1301E-02
  1606.03    0.1299E-02
  1609.31    0.1315E-02
  1612.58    0.1352E-02
  1615.86    0.1419E-02
  1619.14    0.1527E-02
  1622.42    0.1694E-02
  1625.70    0.1948E-02
  1628.98    0.2335E-02
  1632.26    0.2918E-02
  1635.54    0.3758E-02
  1638.82    0.4783E-02
  1642.10    0.5551E-02
  1645.38    0.5426E-02
  1648.66    0.4505E-02
  1651.94    0.3454E-02
  1655.22    0.2624E-02
  1658.50    0.2041E-02
  1661.78    0.1640E-02
  1665.06    0.1359E-02
  1668.34    0.1157E-02
  1671.62    0.1008E-02
  1674.90    0.8941E-03
  1678.18    0.8052E-03
  1681.46    0.7343E-03
  1684.74    0.6764E-03
  1688.02    0.6283E-03
  1691.29    0.5877E-03
  1694.57    0.5529E-03
  1697.85    0.5229E-03
  1701.13    0.4965E-03
  1704.41    0.4732E-03
  1707.69    0.4524E-03
  1710.97    0.4337E-03
  1714.25    0.4168E-03
  1717.53    0.4014E-03
  1720.81    0.3873E-03
  1724.09    0.3743E-03
  1727.37    0.3624E-03
  1730.65    0.3513E-03
  1733.93    0.3409E-03
  1737.21    0.3313E-03
  1740.49    0.3222E-03
  1743.77    0.3137E-03
  1747.05    0.3058E-03
  1750.33    0.2982E-03
  1753.61    0.2911E-03
  1756.89    0.2844E-03
  1760.17    0.2780E-03
  1763.45    0.2719E-03
  1766.72    0.2661E-03
  1770.00    0.2606E-03
  1773.28    0.2553E-03
  1776.56    0.2503E-03
  1779.84    0.2455E-03
  1783.12    0.2409E-03
  1786.40    0.2365E-03
  1789.68    0.2323E-03
  1792.96    0.2283E-03
  1796.24    0.2244E-03
  1799.52    0.2206E-03
  1802.80    0.2170E-03
  1806.08    0.2136E-03
  1809.36    0.2103E-03
  1812.64    0.2071E-03
  1815.92    0.2040E-03
  1819.20    0.2010E-03
  1822.48    0.1981E-03
  1825.76    0.1953E-03
  1829.04    0.1927E-03
  1832.32    0.1901E-03
  1835.60    0.1876E-03
  1838.88    0.1851E-03
  1842.16    0.1828E-03
  1845.43    0.1805E-03
  1848.71    0.1784E-03
  1851.99    0.1762E-03
  1855.27    0.1742E-03
  1858.55    0.1722E-03
  1861.83    0.1703E-03
  1865.11    0.1684E-03
  1868.39    0.1666E-03
  1871.67    0.1648E-03
  1874.95    0.1631E-03
  1878.23    0.1615E-03
  1881.51    0.1599E-03
  1884.79    0.1583E-03
  1888.07    0.1568E-03
  1891.35    0.1554E-03
  1894.63    0.1540E-03
  1897.91    0.1526E-03
  1901.19    0.1513E-03
  1904.47    0.1500E-03
  1907.75    0.1487E-03
  1911.03    0.1475E-03
  1914.31    0.1463E-03
  1917.59    0.1452E-03
  1920.87    0.1441E-03
  1924.14    0.1430E-03
  1927.42    0.1420E-03
  1930.70    0.1409E-03
  1933.98    0.1400E-03
  1937.26    0.1390E-03
  1940.54    0.1381E-03
  1943.82    0.1372E-03
  1947.10    0.1363E-03
  1950.38    0.1355E-03
  1953.66    0.1346E-03
  1956.94    0.1339E-03
  1960.22    0.1331E-03
  1963.50    0.1323E-03
  1966.78    0.1316E-03
  1970.06    0.1309E-03
  1973.34    0.1303E-03
  1976.62    0.1296E-03
  1979.90    0.1290E-03
  1983.18    0.1284E-03
  1986.46    0.1278E-03
  1989.74    0.1272E-03
  1993.02    0.1267E-03
  1996.30    0.1261E-03
  1999.58    0.1256E-03
  2002.85    0.1251E-03
  2006.13    0.1247E-03
  2009.41    0.1242E-03
  2012.69    0.1238E-03
  2015.97    0.1234E-03
  2019.25    0.1230E-03
  2022.53    0.1226E-03
  2025.81    0.1222E-03
  2029.09    0.1218E-03
  2032.37    0.1215E-03
  2035.65    0.1212E-03
  2038.93    0.1209E-03
  2042.21    0.1206E-03
  2045.49    0.1203E-03
  2048.77    0.1201E-03
  2052.05    0.1198E-03
  2055.33    0.1196E-03
  2058.61    0.1194E-03
  2061.89    0.1192E-03
  2065.17    0.1190E-03
  2068.45    0.1188E-03
  2071.73    0.1187E-03
  2075.01    0.1185E-03
  2078.28    0.1184E-03
  2081.56    0.1183E-03
  2084.84    0.1182E-03
  2088.12    0.1181E-03
  2091.40    0.1180E-03
  2094.68    0.1179E-03
  2097.96    0.1179E-03
  2101.24    0.1178E-03
  2104.52    0.1178E-03
  2107.80    0.1178E-03
  2111.08    0.1178E-03
  2114.36    0.1178E-03
  2117.64    0.1178E-03
  2120.92    0.1179E-03
  2124.20    0.1179E-03
  2127.48    0.1180E-03
  2130.76    0.1181E-03
  2134.04    0.1182E-03
  2137.32    0.1182E-03
  2140.60    0.1184E-03
  2143.88    0.1185E-03
  2147.16    0.1186E-03
  2150.44    0.1188E-03
  2153.72    0.1189E-03
  2156.99    0.1191E-03
  2160.27    0.1193E-03
  2163.55    0.1195E-03
  2166.83    0.1197E-03
  2170.11    0.1199E-03
  2173.39    0.1201E-03
  2176.67    0.1204E-03
  2179.95    0.1206E-03
  2183.23    0.1209E-03
  2186.51    0.1212E-03
  2189.79    0.1215E-03
  2193.07    0.1218E-03
  2196.35    0.1221E-03
  2199.63    0.1224E-03
  2202.91    0.1228E-03
  2206.19    0.1231E-03
  2209.47    0.1235E-03
  2212.75    0.1239E-03
  2216.03    0.1243E-03
  2219.31    0.1247E-03
  2222.59    0.1251E-03
  2225.87    0.1255E-03
  2229.15    0.1260E-03
  2232.43    0.1264E-03
  2235.70    0.1269E-03
  2238.98    0.1274E-03
  2242.26    0.1279E-03
  2245.54    0.1284E-03
  2248.82    0.1290E-03
  2252.10    0.1295E-03
  2255.38    0.1301E-03
  2258.66    0.1306E-03
  2261.94    0.1312E-03
  2265.22    0.1318E-03
  2268.50    0.1324E-03
  2271.78    0.1331E-03
  2275.06    0.1337E-03
  2278.34    0.1344E-03
  2281.62    0.1350E-03
  2284.90    0.1357E-03
  2288.18    0.1364E-03
  2291.46    0.1372E-03
  2294.74    0.1379E-03
  2298.02    0.1387E-03
  2301.30    0.1394E-03
  2304.58    0.1402E-03
  2307.86    0.1411E-03
  2311.13    0.1419E-03
  2314.41    0.1427E-03
  2317.69    0.1436E-03
  2320.97    0.1445E-03
  2324.25    0.1454E-03
  2327.53    0.1463E-03
  2330.81    0.1472E-03
  2334.09    0.1482E-03
  2337.37    0.1492E-03
  2340.65    0.1502E-03
  2343.93    0.1512E-03
  2347.21    0.1522E-03
  2350.49    0.1533E-03
  2353.77    0.1544E-03
  2357.05    0.1555E-03
  2360.33    0.1566E-03
  2363.61    0.1577E-03
  2366.89    0.1589E-03
  2370.17    0.1601E-03
  2373.45    0.1613E-03
  2376.73    0.1626E-03
  2380.01    0.1639E-03
  2383.29    0.1652E-03
  2386.57    0.1665E-03
  2389.84    0.1678E-03
  2393.12    0.1692E-03
  2396.40    0.1706E-03
  2399.68    0.1720E-03
  2402.96    0.1735E-03
  2406.24    0.1750E-03
  2409.52    0.1765E-03
  2412.80    0.1781E-03
  2416.08    0.1797E-03
  2419.36    0.1813E-03
  2422.64    0.1829E-03
  2425.92    0.1846E-03
  2429.20    0.1863E-03
  2432.48    0.1881E-03
  2435.76    0.1899E-03
  2439.04    0.1917E-03
  2442.32    0.1935E-03
  2445.60    0.1954E-03
  2448.88    0.1974E-03
  2452.16    0.1994E-03
  2455.44    0.2014E-03
  2458.72    0.2034E-03
  2462.00    0.2056E-03
  2465.28    0.2077E-03
  2468.55    0.2099E-03
  2471.83    0.2121E-03
  2475.11    0.2144E-03
  2478.39    0.2168E-03
  2481.67    0.2192E-03
  2484.95    0.2216E-03
  2488.23    0.2241E-03
  2491.51    0.2266E-03
  2494.79    0.2292E-03
  2498.07    0.2319E-03
  2501.35    0.2346E-03
  2504.63    0.2374E-03
  2507.91    0.2402E-03
  2511.19    0.2431E-03
  2514.47    0.2461E-03
  2517.75    0.2491E-03
  2521.03    0.2522E-03
  2524.31    0.2554E-03
  2527.59    0.2586E-03
  2530.87    0.2620E-03
  2534.15    0.2654E-03
  2537.43    0.2688E-03
  2540.71    0.2724E-03
  2543.98    0.2760E-03
  2547.26    0.2798E-03
  2550.54    0.2836E-03
  2553.82    0.2875E-03
  2557.10    0.2915E-03
  2560.38    0.2956E-03
  2563.66    0.2998E-03
  2566.94    0.3041E-03
  2570.22    0.3086E-03
  2573.50    0.3131E-03
  2576.78    0.3177E-03
  2580.06    0.3225E-03
  2583.34    0.3274E-03
  2586.62    0.3324E-03
  2589.90    0.3376E-03
  2593.18    0.3428E-03
  2596.46    0.3483E-03
  2599.74    0.3538E-03
  2603.02    0.3596E-03
  2606.30    0.3654E-03
  2609.58    0.3715E-03
  2612.86    0.3777E-03
  2616.14    0.3841E-03
  2619.42    0.3906E-03
  2622.69    0.3974E-03
  2625.97    0.4043E-03
  2629.25    0.4114E-03
  2632.53    0.4188E-03
  2635.81    0.4264E-03
  2639.09    0.4342E-03
  2642.37    0.4422E-03
  2645.65    0.4505E-03
  2648.93    0.4590E-03
  2652.21    0.4678E-03
  2655.49    0.4769E-03
  2658.77    0.4862E-03
  2662.05    0.4959E-03
  2665.33    0.5058E-03
  2668.61    0.5161E-03
  2671.89    0.5268E-03
  2675.17    0.5378E-03
  2678.45    0.5492E-03
  2681.73    0.5609E-03
  2685.01    0.5731E-03
  2688.29    0.5857E-03
  2691.57    0.5987E-03
  2694.85    0.6122E-03
  2698.13    0.6262E-03
  2701.40    0.6408E-03
  2704.68    0.6558E-03
  2707.96    0.6715E-03
  2711.24    0.6877E-03
  2714.52    0.7046E-03
  2717.80    0.7221E-03
  2721.08    0.7404E-03
  2724.36    0.7593E-03
  2727.64    0.7791E-03
  2730.92    0.7997E-03
  2734.20    0.8211E-03
  2737.48    0.8435E-03
  2740.76    0.8668E-03
  2744.04    0.8912E-03
  2747.32    0.9167E-03
  2750.60    0.9434E-03
  2753.88    0.9712E-03
  2757.16    0.1000E-02
  2760.44    0.1031E-02
  2763.72    0.1063E-02
  2767.00    0.1097E-02
  2770.28    0.1132E-02
  2773.56    0.1170E-02
  2776.83    0.1209E-02
  2780.11    0.1250E-02
  2783.39    0.1294E-02
  2786.67    0.1340E-02
  2789.95    0.1388E-02
  2793.23    0.1440E-02
  2796.51    0.1494E-02
  2799.79    0.1552E-02
  2803.07    0.1613E-02
  2806.35    0.1678E-02
  2809.63    0.1748E-02
  2812.91    0.1822E-02
  2816.19    0.1901E-02
  2819.47    0.1985E-02
  2822.75    0.2076E-02
  2826.03    0.2173E-02
  2829.31    0.2278E-02
  2832.59    0.2390E-02
  2835.87    0.2512E-02
  2839.15    0.2644E-02
  2842.43    0.2786E-02
  2845.71    0.2942E-02
  2848.99    0.3111E-02
  2852.27    0.3296E-02
  2855.54    0.3499E-02
  2858.82    0.3722E-02
  2862.10    0.3968E-02
  2865.38    0.4241E-02
  2868.66    0.4544E-02
  2871.94    0.4883E-02
  2875.22    0.5263E-02
  2878.50    0.5692E-02
  2881.78    0.6179E-02
  2885.06    0.6734E-02
  2888.34    0.7371E-02
  2891.62    0.8108E-02
  2894.90    0.8969E-02
  2898.18    0.9981E-02
  2901.46    0.1119E-01
  2904.74    0.1263E-01
  2908.02    0.1440E-01
  2911.30    0.1658E-01
  2914.58    0.1933E-01
  2917.86    0.2286E-01
  2921.14    0.2748E-01
  2924.42    0.3369E-01
  2927.70    0.4226E-01
  2930.98    0.5436E-01
  2934.25    0.7161E-01
  2937.53    0.9546E-01
  2940.81    0.1243    
  2944.09    0.1489    
  2947.37    0.1595    
  2950.65    0.1619    
  2953.93    0.1692    
  2957.21    0.1852    
  2960.49    0.2009    
  2963.77    0.2019    
  2967.05    0.1806    
  2970.33    0.1471    
  2973.61    0.1172    
  2976.89    0.9543E-01
  2980.17    0.7836E-01
  2983.45    0.6360E-01
  2986.73    0.5186E-01
  2990.01    0.4365E-01
  2993.29    0.3852E-01
  2996.57    0.3569E-01
  2999.85    0.3407E-01
  3003.13    0.3251E-01
  3006.41    0.3100E-01
  3009.69    0.3050E-01
  3012.96    0.3176E-01
  3016.24    0.3528E-01
  3019.52    0.4168E-01
  3022.80    0.5146E-01
  3026.08    0.6364E-01
  3029.36    0.7403E-01
  3032.64    0.7615E-01
  3035.92    0.6779E-01
  3039.20    0.5517E-01
  3042.48    0.4457E-01
  3045.76    0.3776E-01
  3049.04    0.3441E-01
  3052.32    0.3404E-01
  3055.60    0.3653E-01
  3058.88    0.4192E-01
  3062.16    0.4962E-01
  3065.44    0.5753E-01
  3068.72    0.6442E-01
  3072.00    0.7218E-01
  3075.28    0.7966E-01
  3078.56    0.7913E-01
  3081.84    0.6748E-01
  3085.12    0.5202E-01
  3088.39    0.3904E-01
  3091.67    0.2975E-01
  3094.95    0.2337E-01
  3098.23    0.1896E-01
  3101.51    0.1588E-01
  3104.79    0.1368E-01
  3108.07    0.1211E-01
  3111.35    0.1100E-01
  3114.63    0.1025E-01
  3117.91    0.9798E-02
  3121.19    0.9622E-02
  3124.47    0.9728E-02
  3127.75    0.1015E-01
  3131.03    0.1097E-01
  3134.31    0.1233E-01
  3137.59    0.1444E-01
  3140.87    0.1768E-01
  3144.15    0.2261E-01
  3147.43    0.2986E-01
  3150.71    0.3935E-01
  3153.99    0.4816E-01
  3157.27    0.4999E-01
  3160.55    0.4297E-01
  3163.83    0.3283E-01
  3167.10    0.2423E-01
  3170.38    0.1807E-01
  3173.66    0.1385E-01
  3176.94    0.1093E-01
  3180.22    0.8868E-02
  3183.50    0.7368E-02
  3186.78    0.6246E-02
  3190.06    0.5388E-02
  3193.34    0.4715E-02
  3196.62    0.4178E-02
  3199.90    0.3741E-02
  3203.18    0.3380E-02
  3206.46    0.3078E-02
  3209.74    0.2822E-02
  3213.02    0.2603E-02
  3216.30    0.2413E-02
  3219.58    0.2247E-02
