
 ------------------------------------------------------------
     normal          Raman Scattering Plot
 ------------------------------------------------------------
 Excitation wavelength  514.50 nm
 Convolution lineshape is lorentzian  
 FWHM   20.00  1/cm
 ------------------------------------------------------------
 ------------------------------------------------------------
 # of frequencies :    12
 ------------------------------------------------------------
 #  freq [ 1/cm]  S [Ang**4/amu]
 ------------------------------------------------------------
   1   260.59        0.0000
   2   595.54        5.6864
   3   595.54        5.6847
   4   664.99        0.0002
   5   664.99        0.0001
   6   686.81       10.8927
   7   686.81       10.8898
   8   893.67        2.0221
   9  2002.10        0.0000
  10  2194.24       99.0816
  11  3449.44       85.0892
  12  3450.41        0.0000
 ------------------------------------------------------------
   203.90    0.6655E-04
   207.22    0.6755E-04
   210.53    0.6857E-04
   213.84    0.6961E-04
   217.16    0.7068E-04
   220.47    0.7177E-04
   223.78    0.7289E-04
   227.10    0.7404E-04
   230.41    0.7522E-04
   233.72    0.7642E-04
   237.03    0.7766E-04
   240.35    0.7892E-04
   243.66    0.8022E-04
   246.97    0.8155E-04
   250.29    0.8292E-04
   253.60    0.8432E-04
   256.91    0.8576E-04
   260.23    0.8724E-04
   263.54    0.8876E-04
   266.85    0.9032E-04
   270.17    0.9192E-04
   273.48    0.9357E-04
   276.79    0.9526E-04
   280.11    0.9700E-04
   283.42    0.9879E-04
   286.73    0.1006E-03
   290.04    0.1025E-03
   293.36    0.1045E-03
   296.67    0.1065E-03
   299.98    0.1086E-03
   303.30    0.1107E-03
   306.61    0.1129E-03
   309.92    0.1152E-03
   313.24    0.1175E-03
   316.55    0.1199E-03
   319.86    0.1224E-03
   323.18    0.1250E-03
   326.49    0.1277E-03
   329.80    0.1304E-03
   333.12    0.1333E-03
   336.43    0.1362E-03
   339.74    0.1393E-03
   343.06    0.1424E-03
   346.37    0.1457E-03
   349.68    0.1491E-03
   352.99    0.1526E-03
   356.31    0.1562E-03
   359.62    0.1600E-03
   362.93    0.1639E-03
   366.25    0.1680E-03
   369.56    0.1722E-03
   372.87    0.1766E-03
   376.19    0.1812E-03
   379.50    0.1859E-03
   382.81    0.1909E-03
   386.13    0.1961E-03
   389.44    0.2015E-03
   392.75    0.2071E-03
   396.07    0.2130E-03
   399.38    0.2191E-03
   402.69    0.2255E-03
   406.00    0.2323E-03
   409.32    0.2393E-03
   412.63    0.2467E-03
   415.94    0.2545E-03
   419.26    0.2626E-03
   422.57    0.2712E-03
   425.88    0.2802E-03
   429.20    0.2897E-03
   432.51    0.2997E-03
   435.82    0.3103E-03
   439.14    0.3215E-03
   442.45    0.3333E-03
   445.76    0.3458E-03
   449.08    0.3591E-03
   452.39    0.3732E-03
   455.70    0.3882E-03
   459.01    0.4041E-03
   462.33    0.4212E-03
   465.64    0.4394E-03
   468.95    0.4589E-03
   472.27    0.4798E-03
   475.58    0.5023E-03
   478.89    0.5265E-03
   482.21    0.5526E-03
   485.52    0.5809E-03
   488.83    0.6115E-03
   492.15    0.6448E-03
   495.46    0.6811E-03
   498.77    0.7208E-03
   502.09    0.7643E-03
   505.40    0.8122E-03
   508.71    0.8651E-03
   512.03    0.9238E-03
   515.34    0.9892E-03
   518.65    0.1062E-02
   521.96    0.1145E-02
   525.28    0.1237E-02
   528.59    0.1343E-02
   531.90    0.1464E-02
   535.22    0.1604E-02
   538.53    0.1766E-02
   541.84    0.1956E-02
   545.16    0.2180E-02
   548.47    0.2449E-02
   551.78    0.2775E-02
   555.10    0.3174E-02
   558.41    0.3672E-02
   561.72    0.4303E-02
   565.04    0.5118E-02
   568.35    0.6195E-02
   571.66    0.7653E-02
   574.97    0.9680E-02
   578.29    0.1258E-01
   581.60    0.1681E-01
   584.91    0.2301E-01
   588.23    0.3169E-01
   591.54    0.4173E-01
   594.85    0.4811E-01
   598.17    0.4534E-01
   601.48    0.3610E-01
   604.79    0.2668E-01
   608.11    0.1961E-01
   611.42    0.1479E-01
   614.73    0.1157E-01
   618.05    0.9399E-02
   621.36    0.7924E-02
   624.67    0.6921E-02
   627.98    0.6251E-02
   631.30    0.5830E-02
   634.61    0.5606E-02
   637.92    0.5551E-02
   641.24    0.5654E-02
   644.55    0.5919E-02
   647.86    0.6362E-02
   651.18    0.7019E-02
   654.49    0.7948E-02
   657.80    0.9240E-02
   661.12    0.1104E-01
   664.43    0.1358E-01
   667.74    0.1722E-01
   671.06    0.2255E-01
   674.37    0.3045E-01
   677.68    0.4196E-01
   681.00    0.5717E-01
   684.31    0.7179E-01
   687.62    0.7573E-01
   690.93    0.6520E-01
   694.25    0.4923E-01
   697.56    0.3558E-01
   700.87    0.2586E-01
   704.19    0.1924E-01
   707.50    0.1472E-01
   710.81    0.1157E-01
   714.13    0.9297E-02
   717.44    0.7626E-02
   720.75    0.6365E-02
   724.07    0.5392E-02
   727.38    0.4628E-02
   730.69    0.4017E-02
   734.01    0.3521E-02
   737.32    0.3113E-02
   740.63    0.2774E-02
   743.94    0.2490E-02
   747.26    0.2248E-02
   750.57    0.2041E-02
   753.88    0.1863E-02
   757.20    0.1709E-02
   760.51    0.1574E-02
   763.82    0.1455E-02
   767.14    0.1351E-02
   770.45    0.1258E-02
   773.76    0.1175E-02
   777.08    0.1102E-02
   780.39    0.1036E-02
   783.70    0.9765E-03
   787.02    0.9232E-03
   790.33    0.8752E-03
   793.64    0.8318E-03
   796.95    0.7927E-03
   800.27    0.7575E-03
   803.58    0.7258E-03
   806.89    0.6974E-03
   810.21    0.6720E-03
   813.52    0.6495E-03
   816.83    0.6299E-03
   820.15    0.6129E-03
   823.46    0.5988E-03
   826.77    0.5874E-03
   830.09    0.5790E-03
   833.40    0.5737E-03
   836.71    0.5718E-03
   840.03    0.5739E-03
   843.34    0.5806E-03
   846.65    0.5928E-03
   849.97    0.6117E-03
   853.28    0.6391E-03
   856.59    0.6775E-03
   859.90    0.7306E-03
   863.22    0.8038E-03
   866.53    0.9053E-03
   869.84    0.1048E-02
   873.16    0.1251E-02
   876.47    0.1548E-02
   879.78    0.1988E-02
   883.10    0.2638E-02
   886.41    0.3551E-02
   889.72    0.4605E-02
   893.04    0.5257E-02
   896.35    0.4932E-02
   899.66    0.3931E-02
   902.98    0.2918E-02
   906.29    0.2155E-02
   909.60    0.1630E-02
   912.91    0.1271E-02
   916.23    0.1022E-02
   919.54    0.8448E-03
   922.85    0.7145E-03
   926.17    0.6163E-03
   929.48    0.5405E-03
   932.79    0.4808E-03
   936.11    0.4327E-03
   939.42    0.3935E-03
   942.73    0.3609E-03
   946.05    0.3335E-03
   949.36    0.3102E-03
   952.67    0.2901E-03
   955.99    0.2726E-03
   959.30    0.2573E-03
   962.61    0.2438E-03
   965.92    0.2317E-03
   969.24    0.2209E-03
   972.55    0.2111E-03
   975.86    0.2022E-03
   979.18    0.1941E-03
   982.49    0.1867E-03
   985.80    0.1799E-03
   989.12    0.1736E-03
   992.43    0.1678E-03
   995.74    0.1624E-03
   999.06    0.1573E-03
  1002.37    0.1526E-03
  1005.68    0.1481E-03
  1009.00    0.1439E-03
  1012.31    0.1400E-03
  1015.62    0.1363E-03
  1018.94    0.1328E-03
  1022.25    0.1294E-03
  1025.56    0.1263E-03
  1028.87    0.1233E-03
  1032.19    0.1204E-03
  1035.50    0.1176E-03
  1038.81    0.1150E-03
  1042.13    0.1125E-03
  1045.44    0.1101E-03
  1048.75    0.1078E-03
  1052.07    0.1056E-03
  1055.38    0.1035E-03
  1058.69    0.1015E-03
  1062.01    0.9953E-04
  1065.32    0.9765E-04
  1068.63    0.9584E-04
  1071.95    0.9409E-04
  1075.26    0.9241E-04
  1078.57    0.9078E-04
  1081.88    0.8921E-04
  1085.20    0.8769E-04
  1088.51    0.8622E-04
  1091.82    0.8479E-04
  1095.14    0.8342E-04
  1098.45    0.8208E-04
  1101.76    0.8079E-04
  1105.08    0.7954E-04
  1108.39    0.7832E-04
  1111.70    0.7714E-04
  1115.02    0.7600E-04
  1118.33    0.7488E-04
  1121.64    0.7380E-04
  1124.96    0.7276E-04
  1128.27    0.7174E-04
  1131.58    0.7074E-04
  1134.89    0.6978E-04
  1138.21    0.6884E-04
  1141.52    0.6793E-04
  1144.83    0.6704E-04
  1148.15    0.6618E-04
  1151.46    0.6533E-04
  1154.77    0.6451E-04
  1158.09    0.6371E-04
  1161.40    0.6293E-04
  1164.71    0.6217E-04
  1168.03    0.6143E-04
  1171.34    0.6071E-04
  1174.65    0.6001E-04
  1177.97    0.5932E-04
  1181.28    0.5865E-04
  1184.59    0.5800E-04
  1187.91    0.5736E-04
  1191.22    0.5674E-04
  1194.53    0.5613E-04
  1197.84    0.5554E-04
  1201.16    0.5496E-04
  1204.47    0.5439E-04
  1207.78    0.5384E-04
  1211.10    0.5330E-04
  1214.41    0.5277E-04
  1217.72    0.5226E-04
  1221.04    0.5175E-04
  1224.35    0.5126E-04
  1227.66    0.5078E-04
  1230.98    0.5031E-04
  1234.29    0.4986E-04
  1237.60    0.4941E-04
  1240.92    0.4897E-04
  1244.23    0.4854E-04
  1247.54    0.4813E-04
  1250.85    0.4772E-04
  1254.17    0.4732E-04
  1257.48    0.4693E-04
  1260.79    0.4655E-04
  1264.11    0.4618E-04
  1267.42    0.4581E-04
  1270.73    0.4546E-04
  1274.05    0.4511E-04
  1277.36    0.4477E-04
  1280.67    0.4444E-04
  1283.99    0.4411E-04
  1287.30    0.4380E-04
  1290.61    0.4349E-04
  1293.93    0.4318E-04
  1297.24    0.4289E-04
  1300.55    0.4260E-04
  1303.86    0.4232E-04
  1307.18    0.4204E-04
  1310.49    0.4177E-04
  1313.80    0.4151E-04
  1317.12    0.4126E-04
  1320.43    0.4101E-04
  1323.74    0.4076E-04
  1327.06    0.4052E-04
  1330.37    0.4029E-04
  1333.68    0.4007E-04
  1337.00    0.3985E-04
  1340.31    0.3963E-04
  1343.62    0.3942E-04
  1346.94    0.3922E-04
  1350.25    0.3902E-04
  1353.56    0.3883E-04
  1356.88    0.3864E-04
  1360.19    0.3846E-04
  1363.50    0.3828E-04
  1366.81    0.3810E-04
  1370.13    0.3794E-04
  1373.44    0.3777E-04
  1376.75    0.3762E-04
  1380.07    0.3746E-04
  1383.38    0.3731E-04
  1386.69    0.3717E-04
  1390.01    0.3703E-04
  1393.32    0.3689E-04
  1396.63    0.3676E-04
  1399.95    0.3664E-04
  1403.26    0.3652E-04
  1406.57    0.3640E-04
  1409.89    0.3629E-04
  1413.20    0.3618E-04
  1416.51    0.3607E-04
  1419.82    0.3597E-04
  1423.14    0.3588E-04
  1426.45    0.3578E-04
  1429.76    0.3570E-04
  1433.08    0.3561E-04
  1436.39    0.3553E-04
  1439.70    0.3546E-04
  1443.02    0.3539E-04
  1446.33    0.3532E-04
  1449.64    0.3526E-04
  1452.96    0.3520E-04
  1456.27    0.3514E-04
  1459.58    0.3509E-04
  1462.90    0.3504E-04
  1466.21    0.3500E-04
  1469.52    0.3496E-04
  1472.83    0.3492E-04
  1476.15    0.3489E-04
  1479.46    0.3487E-04
  1482.77    0.3484E-04
  1486.09    0.3482E-04
  1489.40    0.3481E-04
  1492.71    0.3479E-04
  1496.03    0.3479E-04
  1499.34    0.3478E-04
  1502.65    0.3478E-04
  1505.97    0.3479E-04
  1509.28    0.3480E-04
  1512.59    0.3481E-04
  1515.91    0.3482E-04
  1519.22    0.3484E-04
  1522.53    0.3487E-04
  1525.85    0.3490E-04
  1529.16    0.3493E-04
  1532.47    0.3496E-04
  1535.78    0.3500E-04
  1539.10    0.3505E-04
  1542.41    0.3510E-04
  1545.72    0.3515E-04
  1549.04    0.3521E-04
  1552.35    0.3527E-04
  1555.66    0.3534E-04
  1558.98    0.3541E-04
  1562.29    0.3548E-04
  1565.60    0.3556E-04
  1568.92    0.3564E-04
  1572.23    0.3573E-04
  1575.54    0.3583E-04
  1578.86    0.3592E-04
  1582.17    0.3602E-04
  1585.48    0.3613E-04
  1588.79    0.3624E-04
  1592.11    0.3636E-04
  1595.42    0.3648E-04
  1598.73    0.3661E-04
  1602.05    0.3674E-04
  1605.36    0.3688E-04
  1608.67    0.3702E-04
  1611.99    0.3717E-04
  1615.30    0.3732E-04
  1618.61    0.3748E-04
  1621.93    0.3764E-04
  1625.24    0.3781E-04
  1628.55    0.3798E-04
  1631.87    0.3816E-04
  1635.18    0.3835E-04
  1638.49    0.3854E-04
  1641.80    0.3874E-04
  1645.12    0.3895E-04
  1648.43    0.3916E-04
  1651.74    0.3937E-04
  1655.06    0.3960E-04
  1658.37    0.3983E-04
  1661.68    0.4007E-04
  1665.00    0.4031E-04
  1668.31    0.4056E-04
  1671.62    0.4082E-04
  1674.94    0.4109E-04
  1678.25    0.4136E-04
  1681.56    0.4165E-04
  1684.88    0.4194E-04
  1688.19    0.4223E-04
  1691.50    0.4254E-04
  1694.82    0.4285E-04
  1698.13    0.4318E-04
  1701.44    0.4351E-04
  1704.75    0.4385E-04
  1708.07    0.4420E-04
  1711.38    0.4456E-04
  1714.69    0.4493E-04
  1718.01    0.4531E-04
  1721.32    0.4570E-04
  1724.63    0.4610E-04
  1727.95    0.4651E-04
  1731.26    0.4693E-04
  1734.57    0.4737E-04
  1737.89    0.4781E-04
  1741.20    0.4827E-04
  1744.51    0.4874E-04
  1747.83    0.4922E-04
  1751.14    0.4971E-04
  1754.45    0.5022E-04
  1757.76    0.5074E-04
  1761.08    0.5128E-04
  1764.39    0.5183E-04
  1767.70    0.5239E-04
  1771.02    0.5297E-04
  1774.33    0.5357E-04
  1777.64    0.5418E-04
  1780.96    0.5481E-04
  1784.27    0.5546E-04
  1787.58    0.5612E-04
  1790.90    0.5681E-04
  1794.21    0.5751E-04
  1797.52    0.5823E-04
  1800.84    0.5897E-04
  1804.15    0.5973E-04
  1807.46    0.6052E-04
  1810.77    0.6132E-04
  1814.09    0.6215E-04
  1817.40    0.6301E-04
  1820.71    0.6388E-04
  1824.03    0.6479E-04
  1827.34    0.6572E-04
  1830.65    0.6668E-04
  1833.97    0.6766E-04
  1837.28    0.6868E-04
  1840.59    0.6972E-04
  1843.91    0.7080E-04
  1847.22    0.7191E-04
  1850.53    0.7305E-04
  1853.85    0.7423E-04
  1857.16    0.7545E-04
  1860.47    0.7670E-04
  1863.79    0.7800E-04
  1867.10    0.7933E-04
  1870.41    0.8071E-04
  1873.72    0.8214E-04
  1877.04    0.8361E-04
  1880.35    0.8512E-04
  1883.66    0.8669E-04
  1886.98    0.8832E-04
  1890.29    0.8999E-04
  1893.60    0.9173E-04
  1896.92    0.9352E-04
  1900.23    0.9538E-04
  1903.54    0.9730E-04
  1906.86    0.9929E-04
  1910.17    0.1014E-03
  1913.48    0.1035E-03
  1916.80    0.1057E-03
  1920.11    0.1080E-03
  1923.42    0.1104E-03
  1926.73    0.1129E-03
  1930.05    0.1154E-03
  1933.36    0.1181E-03
  1936.67    0.1209E-03
  1939.99    0.1238E-03
  1943.30    0.1268E-03
  1946.61    0.1299E-03
  1949.93    0.1332E-03
  1953.24    0.1366E-03
  1956.55    0.1401E-03
  1959.87    0.1438E-03
  1963.18    0.1476E-03
  1966.49    0.1517E-03
  1969.81    0.1559E-03
  1973.12    0.1603E-03
  1976.43    0.1649E-03
  1979.74    0.1697E-03
  1983.06    0.1747E-03
  1986.37    0.1800E-03
  1989.68    0.1856E-03
  1993.00    0.1914E-03
  1996.31    0.1975E-03
  1999.62    0.2040E-03
  2002.94    0.2107E-03
  2006.25    0.2179E-03
  2009.56    0.2254E-03
  2012.88    0.2333E-03
  2016.19    0.2417E-03
  2019.50    0.2506E-03
  2022.82    0.2600E-03
  2026.13    0.2699E-03
  2029.44    0.2805E-03
  2032.76    0.2917E-03
  2036.07    0.3036E-03
  2039.38    0.3163E-03
  2042.69    0.3298E-03
  2046.01    0.3443E-03
  2049.32    0.3597E-03
  2052.63    0.3763E-03
  2055.95    0.3940E-03
  2059.26    0.4130E-03
  2062.57    0.4335E-03
  2065.89    0.4556E-03
  2069.20    0.4795E-03
  2072.51    0.5053E-03
  2075.83    0.5333E-03
  2079.14    0.5637E-03
  2082.45    0.5968E-03
  2085.77    0.6330E-03
  2089.08    0.6727E-03
  2092.39    0.7162E-03
  2095.70    0.7641E-03
  2099.02    0.8170E-03
  2102.33    0.8757E-03
  2105.64    0.9409E-03
  2108.96    0.1014E-02
  2112.27    0.1096E-02
  2115.58    0.1188E-02
  2118.90    0.1292E-02
  2122.21    0.1410E-02
  2125.52    0.1546E-02
  2128.84    0.1702E-02
  2132.15    0.1883E-02
  2135.46    0.2094E-02
  2138.78    0.2343E-02
  2142.09    0.2638E-02
  2145.40    0.2992E-02
  2148.71    0.3422E-02
  2152.03    0.3949E-02
  2155.34    0.4606E-02
  2158.65    0.5436E-02
  2161.97    0.6506E-02
  2165.28    0.7910E-02
  2168.59    0.9797E-02
  2171.91    0.1240E-01
  2175.22    0.1607E-01
  2178.53    0.2140E-01
  2181.85    0.2926E-01
  2185.16    0.4066E-01
  2188.47    0.5567E-01
  2191.79    0.6997E-01
  2195.10    0.7364E-01
  2198.41    0.6318E-01
  2201.73    0.4754E-01
  2205.04    0.3425E-01
  2208.35    0.2480E-01
  2211.66    0.1838E-01
  2214.98    0.1400E-01
  2218.29    0.1094E-01
  2221.60    0.8745E-02
  2224.92    0.7131E-02
  2228.23    0.5916E-02
  2231.54    0.4980E-02
  2234.86    0.4246E-02
  2238.17    0.3661E-02
  2241.48    0.3188E-02
  2244.80    0.2800E-02
  2248.11    0.2478E-02
  2251.42    0.2208E-02
  2254.74    0.1980E-02
  2258.05    0.1785E-02
  2261.36    0.1618E-02
  2264.67    0.1473E-02
  2267.99    0.1346E-02
  2271.30    0.1235E-02
  2274.61    0.1138E-02
  2277.93    0.1051E-02
  2281.24    0.9743E-03
  2284.55    0.9054E-03
  2287.87    0.8437E-03
  2291.18    0.7881E-03
  2294.49    0.7378E-03
  2297.81    0.6922E-03
  2301.12    0.6507E-03
  2304.43    0.6129E-03
  2307.75    0.5783E-03
  2311.06    0.5466E-03
  2314.37    0.5175E-03
  2317.68    0.4906E-03
  2321.00    0.4658E-03
  2324.31    0.4429E-03
  2327.62    0.4216E-03
  2330.94    0.4018E-03
  2334.25    0.3835E-03
  2337.56    0.3663E-03
  2340.88    0.3504E-03
  2344.19    0.3354E-03
  2347.50    0.3214E-03
  2350.82    0.3083E-03
  2354.13    0.2960E-03
  2357.44    0.2844E-03
  2360.76    0.2735E-03
  2364.07    0.2633E-03
  2367.38    0.2536E-03
  2370.70    0.2444E-03
  2374.01    0.2358E-03
  2377.32    0.2276E-03
  2380.63    0.2199E-03
  2383.95    0.2125E-03
  2387.26    0.2055E-03
  2390.57    0.1989E-03
  2393.89    0.1926E-03
  2397.20    0.1866E-03
  2400.51    0.1809E-03
  2403.83    0.1754E-03
  2407.14    0.1703E-03
  2410.45    0.1653E-03
  2413.77    0.1606E-03
  2417.08    0.1561E-03
  2420.39    0.1517E-03
  2423.71    0.1476E-03
  2427.02    0.1436E-03
  2430.33    0.1398E-03
  2433.64    0.1362E-03
  2436.96    0.1327E-03
  2440.27    0.1293E-03
  2443.58    0.1261E-03
  2446.90    0.1230E-03
  2450.21    0.1201E-03
  2453.52    0.1172E-03
  2456.84    0.1144E-03
  2460.15    0.1118E-03
  2463.46    0.1092E-03
  2466.78    0.1068E-03
  2470.09    0.1044E-03
  2473.40    0.1021E-03
  2476.72    0.9991E-04
  2480.03    0.9778E-04
  2483.34    0.9572E-04
  2486.65    0.9373E-04
  2489.97    0.9181E-04
  2493.28    0.8996E-04
  2496.59    0.8816E-04
  2499.91    0.8643E-04
  2503.22    0.8475E-04
  2506.53    0.8312E-04
  2509.85    0.8155E-04
  2513.16    0.8002E-04
  2516.47    0.7854E-04
  2519.79    0.7711E-04
  2523.10    0.7572E-04
  2526.41    0.7437E-04
  2529.73    0.7307E-04
  2533.04    0.7180E-04
  2536.35    0.7057E-04
  2539.67    0.6937E-04
  2542.98    0.6821E-04
  2546.29    0.6709E-04
  2549.60    0.6599E-04
  2552.92    0.6493E-04
  2556.23    0.6390E-04
  2559.54    0.6289E-04
  2562.86    0.6191E-04
  2566.17    0.6096E-04
  2569.48    0.6004E-04
  2572.80    0.5914E-04
  2576.11    0.5826E-04
  2579.42    0.5741E-04
  2582.74    0.5658E-04
  2586.05    0.5577E-04
  2589.36    0.5499E-04
  2592.68    0.5422E-04
  2595.99    0.5347E-04
  2599.30    0.5275E-04
  2602.61    0.5204E-04
  2605.93    0.5135E-04
  2609.24    0.5067E-04
  2612.55    0.5002E-04
  2615.87    0.4938E-04
  2619.18    0.4875E-04
  2622.49    0.4814E-04
  2625.81    0.4755E-04
  2629.12    0.4697E-04
  2632.43    0.4640E-04
  2635.75    0.4585E-04
  2639.06    0.4531E-04
  2642.37    0.4479E-04
  2645.69    0.4428E-04
  2649.00    0.4378E-04
  2652.31    0.4329E-04
  2655.62    0.4281E-04
  2658.94    0.4234E-04
  2662.25    0.4189E-04
  2665.56    0.4145E-04
  2668.88    0.4101E-04
  2672.19    0.4059E-04
  2675.50    0.4018E-04
  2678.82    0.3977E-04
  2682.13    0.3938E-04
  2685.44    0.3900E-04
  2688.76    0.3862E-04
  2692.07    0.3825E-04
  2695.38    0.3789E-04
  2698.70    0.3754E-04
  2702.01    0.3720E-04
  2705.32    0.3687E-04
  2708.64    0.3654E-04
  2711.95    0.3623E-04
  2715.26    0.3591E-04
  2718.57    0.3561E-04
  2721.89    0.3531E-04
  2725.20    0.3503E-04
  2728.51    0.3474E-04
  2731.83    0.3447E-04
  2735.14    0.3420E-04
  2738.45    0.3394E-04
  2741.77    0.3368E-04
  2745.08    0.3343E-04
  2748.39    0.3319E-04
  2751.71    0.3295E-04
  2755.02    0.3272E-04
  2758.33    0.3249E-04
  2761.65    0.3227E-04
  2764.96    0.3206E-04
  2768.27    0.3185E-04
  2771.58    0.3165E-04
  2774.90    0.3145E-04
  2778.21    0.3126E-04
  2781.52    0.3107E-04
  2784.84    0.3089E-04
  2788.15    0.3071E-04
  2791.46    0.3054E-04
  2794.78    0.3037E-04
  2798.09    0.3021E-04
  2801.40    0.3005E-04
  2804.72    0.2990E-04
  2808.03    0.2975E-04
  2811.34    0.2960E-04
  2814.66    0.2947E-04
  2817.97    0.2933E-04
  2821.28    0.2920E-04
  2824.59    0.2908E-04
  2827.91    0.2895E-04
  2831.22    0.2884E-04
  2834.53    0.2873E-04
  2837.85    0.2862E-04
  2841.16    0.2851E-04
  2844.47    0.2841E-04
  2847.79    0.2832E-04
  2851.10    0.2823E-04
  2854.41    0.2814E-04
  2857.73    0.2806E-04
  2861.04    0.2798E-04
  2864.35    0.2791E-04
  2867.67    0.2784E-04
  2870.98    0.2777E-04
  2874.29    0.2771E-04
  2877.61    0.2765E-04
  2880.92    0.2760E-04
  2884.23    0.2755E-04
  2887.54    0.2750E-04
  2890.86    0.2746E-04
  2894.17    0.2742E-04
  2897.48    0.2739E-04
  2900.80    0.2736E-04
  2904.11    0.2734E-04
  2907.42    0.2732E-04
  2910.74    0.2730E-04
  2914.05    0.2729E-04
  2917.36    0.2728E-04
  2920.68    0.2728E-04
  2923.99    0.2728E-04
  2927.30    0.2728E-04
  2930.62    0.2729E-04
  2933.93    0.2731E-04
  2937.24    0.2732E-04
  2940.55    0.2735E-04
  2943.87    0.2737E-04
  2947.18    0.2741E-04
  2950.49    0.2744E-04
  2953.81    0.2748E-04
  2957.12    0.2753E-04
  2960.43    0.2758E-04
  2963.75    0.2764E-04
  2967.06    0.2770E-04
  2970.37    0.2776E-04
  2973.69    0.2783E-04
  2977.00    0.2791E-04
  2980.31    0.2799E-04
  2983.63    0.2808E-04
  2986.94    0.2817E-04
  2990.25    0.2827E-04
  2993.56    0.2837E-04
  2996.88    0.2848E-04
  3000.19    0.2860E-04
  3003.50    0.2872E-04
  3006.82    0.2884E-04
  3010.13    0.2898E-04
  3013.44    0.2912E-04
  3016.76    0.2926E-04
  3020.07    0.2942E-04
  3023.38    0.2958E-04
  3026.70    0.2974E-04
  3030.01    0.2992E-04
  3033.32    0.3010E-04
  3036.64    0.3029E-04
  3039.95    0.3049E-04
  3043.26    0.3069E-04
  3046.58    0.3091E-04
  3049.89    0.3113E-04
  3053.20    0.3136E-04
  3056.51    0.3160E-04
  3059.83    0.3185E-04
  3063.14    0.3210E-04
  3066.45    0.3237E-04
  3069.77    0.3265E-04
  3073.08    0.3294E-04
  3076.39    0.3323E-04
  3079.71    0.3354E-04
  3083.02    0.3387E-04
  3086.33    0.3420E-04
  3089.65    0.3454E-04
  3092.96    0.3490E-04
  3096.27    0.3527E-04
  3099.59    0.3565E-04
  3102.90    0.3605E-04
  3106.21    0.3646E-04
  3109.52    0.3689E-04
  3112.84    0.3733E-04
  3116.15    0.3779E-04
  3119.46    0.3827E-04
  3122.78    0.3876E-04
  3126.09    0.3927E-04
  3129.40    0.3980E-04
  3132.72    0.4035E-04
  3136.03    0.4091E-04
  3139.34    0.4150E-04
  3142.66    0.4211E-04
  3145.97    0.4275E-04
  3149.28    0.4341E-04
  3152.60    0.4409E-04
  3155.91    0.4480E-04
  3159.22    0.4553E-04
  3162.53    0.4630E-04
  3165.85    0.4709E-04
  3169.16    0.4792E-04
  3172.47    0.4877E-04
  3175.79    0.4966E-04
  3179.10    0.5059E-04
  3182.41    0.5155E-04
  3185.73    0.5256E-04
  3189.04    0.5360E-04
  3192.35    0.5469E-04
  3195.67    0.5582E-04
  3198.98    0.5700E-04
  3202.29    0.5823E-04
  3205.61    0.5952E-04
  3208.92    0.6086E-04
  3212.23    0.6226E-04
  3215.55    0.6372E-04
  3218.86    0.6524E-04
  3222.17    0.6684E-04
  3225.48    0.6851E-04
  3228.80    0.7026E-04
  3232.11    0.7210E-04
  3235.42    0.7402E-04
  3238.74    0.7603E-04
  3242.05    0.7815E-04
  3245.36    0.8037E-04
  3248.68    0.8270E-04
  3251.99    0.8516E-04
  3255.30    0.8774E-04
  3258.62    0.9046E-04
  3261.93    0.9333E-04
  3265.24    0.9636E-04
  3268.56    0.9956E-04
  3271.87    0.1029E-03
  3275.18    0.1065E-03
  3278.49    0.1103E-03
  3281.81    0.1143E-03
  3285.12    0.1186E-03
  3288.43    0.1231E-03
  3291.75    0.1280E-03
  3295.06    0.1331E-03
  3298.37    0.1386E-03
  3301.69    0.1444E-03
  3305.00    0.1507E-03
  3308.31    0.1574E-03
  3311.63    0.1646E-03
  3314.94    0.1723E-03
  3318.25    0.1807E-03
  3321.57    0.1897E-03
  3324.88    0.1994E-03
  3328.19    0.2099E-03
  3331.50    0.2213E-03
  3334.82    0.2337E-03
  3338.13    0.2472E-03
  3341.44    0.2620E-03
  3344.76    0.2782E-03
  3348.07    0.2960E-03
  3351.38    0.3155E-03
  3354.70    0.3372E-03
  3358.01    0.3612E-03
  3361.32    0.3880E-03
  3364.64    0.4178E-03
  3367.95    0.4514E-03
  3371.26    0.4892E-03
  3374.58    0.5320E-03
  3377.89    0.5807E-03
  3381.20    0.6366E-03
  3384.52    0.7009E-03
  3387.83    0.7755E-03
  3391.14    0.8628E-03
  3394.45    0.9656E-03
  3397.77    0.1088E-02
  3401.08    0.1235E-02
  3404.39    0.1413E-02
  3407.71    0.1633E-02
  3411.02    0.1907E-02
  3414.33    0.2254E-02
  3417.65    0.2702E-02
  3420.96    0.3293E-02
  3424.27    0.4089E-02
  3427.59    0.5190E-02
  3430.90    0.6753E-02
  3434.21    0.9027E-02
  3437.53    0.1238E-01
  3440.84    0.1721E-01
  3444.15    0.2340E-01
  3447.46    0.2883E-01
  3450.78    0.2943E-01
  3454.09    0.2463E-01
  3457.40    0.1834E-01
  3460.72    0.1319E-01
  3464.03    0.9580E-02
  3467.34    0.7129E-02
  3470.66    0.5451E-02
  3473.97    0.4275E-02
  3477.28    0.3428E-02
  3480.60    0.2803E-02
  3483.91    0.2331E-02
  3487.22    0.1967E-02
  3490.54    0.1680E-02
  3493.85    0.1451E-02
  3497.16    0.1266E-02
  3500.47    0.1113E-02
  3503.79    0.9867E-03
  3507.10    0.8804E-03
  3510.41    0.7903E-03
  3513.73    0.7134E-03
