
 ------------------------------------------------------------
     normal          Raman Scattering Plot
 ------------------------------------------------------------
 Excitation wavelength  514.50 nm
 Convolution lineshape is lorentzian  
 FWHM   20.00  1/cm
 ------------------------------------------------------------
 ------------------------------------------------------------
 # of frequencies :    12
 ------------------------------------------------------------
 #  freq [ 1/cm]  S [Ang**4/amu]
 ------------------------------------------------------------
   1   285.95        0.0000
   2   610.07        5.6948
   3   610.07        5.6922
   4   661.07        0.0000
   5   661.07        0.0001
   6   698.29       11.1088
   7   698.29       11.1038
   8   864.97        1.7816
   9  1964.24        0.0000
  10  2141.08       98.8145
  11  3445.41       89.5408
  12  3447.10        0.0000
 ------------------------------------------------------------
   229.23    0.6959E-04
   232.52    0.7065E-04
   235.80    0.7173E-04
   239.09    0.7284E-04
   242.37    0.7398E-04
   245.66    0.7515E-04
   248.94    0.7634E-04
   252.22    0.7756E-04
   255.51    0.7882E-04
   258.79    0.8011E-04
   262.08    0.8142E-04
   265.36    0.8278E-04
   268.65    0.8417E-04
   271.93    0.8559E-04
   275.22    0.8705E-04
   278.50    0.8856E-04
   281.78    0.9010E-04
   285.07    0.9168E-04
   288.35    0.9331E-04
   291.64    0.9498E-04
   294.92    0.9670E-04
   298.21    0.9847E-04
   301.49    0.1003E-03
   304.78    0.1022E-03
   308.06    0.1041E-03
   311.34    0.1061E-03
   314.63    0.1081E-03
   317.91    0.1102E-03
   321.20    0.1124E-03
   324.48    0.1146E-03
   327.77    0.1169E-03
   331.05    0.1193E-03
   334.34    0.1218E-03
   337.62    0.1243E-03
   340.90    0.1269E-03
   344.19    0.1296E-03
   347.47    0.1324E-03
   350.76    0.1353E-03
   354.04    0.1383E-03
   357.33    0.1414E-03
   360.61    0.1446E-03
   363.90    0.1479E-03
   367.18    0.1514E-03
   370.46    0.1550E-03
   373.75    0.1587E-03
   377.03    0.1625E-03
   380.32    0.1665E-03
   383.60    0.1706E-03
   386.89    0.1749E-03
   390.17    0.1794E-03
   393.46    0.1840E-03
   396.74    0.1889E-03
   400.02    0.1939E-03
   403.31    0.1992E-03
   406.59    0.2047E-03
   409.88    0.2104E-03
   413.16    0.2164E-03
   416.45    0.2227E-03
   419.73    0.2292E-03
   423.02    0.2361E-03
   426.30    0.2433E-03
   429.58    0.2508E-03
   432.87    0.2587E-03
   436.15    0.2670E-03
   439.44    0.2757E-03
   442.72    0.2849E-03
   446.01    0.2946E-03
   449.29    0.3048E-03
   452.58    0.3155E-03
   455.86    0.3269E-03
   459.14    0.3390E-03
   462.43    0.3517E-03
   465.71    0.3653E-03
   469.00    0.3796E-03
   472.28    0.3949E-03
   475.57    0.4112E-03
   478.85    0.4286E-03
   482.14    0.4472E-03
   485.42    0.4671E-03
   488.70    0.4885E-03
   491.99    0.5114E-03
   495.27    0.5361E-03
   498.56    0.5628E-03
   501.84    0.5917E-03
   505.13    0.6230E-03
   508.41    0.6570E-03
   511.70    0.6942E-03
   514.98    0.7348E-03
   518.26    0.7793E-03
   521.55    0.8284E-03
   524.83    0.8826E-03
   528.12    0.9428E-03
   531.40    0.1010E-02
   534.69    0.1085E-02
   537.97    0.1169E-02
   541.26    0.1265E-02
   544.54    0.1374E-02
   547.82    0.1498E-02
   551.11    0.1642E-02
   554.39    0.1810E-02
   557.68    0.2007E-02
   560.96    0.2240E-02
   564.25    0.2519E-02
   567.53    0.2859E-02
   570.82    0.3276E-02
   574.10    0.3798E-02
   577.38    0.4462E-02
   580.67    0.5324E-02
   583.95    0.6468E-02
   587.24    0.8025E-02
   590.52    0.1020E-01
   593.81    0.1332E-01
   597.09    0.1788E-01
   600.38    0.2451E-01
   603.66    0.3346E-01
   606.94    0.4284E-01
   610.23    0.4701E-01
   613.51    0.4223E-01
   616.80    0.3284E-01
   620.08    0.2423E-01
   623.37    0.1798E-01
   626.65    0.1374E-01
   629.94    0.1091E-01
   633.22    0.8998E-02
   636.50    0.7707E-02
   639.79    0.6842E-02
   643.07    0.6285E-02
   646.36    0.5965E-02
   649.64    0.5840E-02
   652.93    0.5892E-02
   656.21    0.6118E-02
   659.50    0.6532E-02
   662.78    0.7165E-02
   666.06    0.8072E-02
   669.35    0.9345E-02
   672.63    0.1112E-01
   675.92    0.1363E-01
   679.20    0.1722E-01
   682.49    0.2247E-01
   685.77    0.3022E-01
   689.06    0.4150E-01
   692.34    0.5645E-01
   695.62    0.7115E-01
   698.91    0.7585E-01
   702.19    0.6613E-01
   705.48    0.5035E-01
   708.76    0.3653E-01
   712.05    0.2659E-01
   715.33    0.1979E-01
   718.62    0.1514E-01
   721.90    0.1189E-01
   725.18    0.9550E-02
   728.47    0.7830E-02
   731.75    0.6533E-02
   735.04    0.5534E-02
   738.32    0.4749E-02
   741.61    0.4122E-02
   744.89    0.3614E-02
   748.17    0.3197E-02
   751.46    0.2850E-02
   754.74    0.2559E-02
   758.03    0.2313E-02
   761.31    0.2103E-02
   764.60    0.1922E-02
   767.88    0.1766E-02
   771.17    0.1629E-02
   774.45    0.1510E-02
   777.73    0.1406E-02
   781.02    0.1314E-02
   784.30    0.1233E-02
   787.59    0.1162E-02
   790.87    0.1099E-02
   794.16    0.1044E-02
   797.44    0.9954E-03
   800.73    0.9536E-03
   804.01    0.9180E-03
   807.29    0.8883E-03
   810.58    0.8647E-03
   813.86    0.8474E-03
   817.15    0.8367E-03
   820.43    0.8337E-03
   823.72    0.8394E-03
   827.00    0.8559E-03
   830.29    0.8858E-03
   833.57    0.9335E-03
   836.85    0.1005E-02
   840.14    0.1111E-02
   843.42    0.1266E-02
   846.71    0.1496E-02
   849.99    0.1838E-02
   853.28    0.2350E-02
   856.56    0.3091E-02
   859.85    0.4031E-02
   863.13    0.4829E-02
   866.41    0.4874E-02
   869.70    0.4111E-02
   872.98    0.3136E-02
   876.27    0.2341E-02
   879.55    0.1778E-02
   882.84    0.1392E-02
   886.12    0.1125E-02
   889.41    0.9343E-03
   892.69    0.7952E-03
   895.97    0.6905E-03
   899.26    0.6097E-03
   902.54    0.5460E-03
   905.83    0.4946E-03
   909.11    0.4524E-03
   912.40    0.4173E-03
   915.68    0.3875E-03
   918.97    0.3621E-03
   922.25    0.3400E-03
   925.53    0.3207E-03
   928.82    0.3036E-03
   932.10    0.2885E-03
   935.39    0.2748E-03
   938.67    0.2626E-03
   941.96    0.2514E-03
   945.24    0.2412E-03
   948.53    0.2318E-03
   951.81    0.2232E-03
   955.09    0.2153E-03
   958.38    0.2078E-03
   961.66    0.2010E-03
   964.95    0.1945E-03
   968.23    0.1885E-03
   971.52    0.1828E-03
   974.80    0.1775E-03
   978.09    0.1724E-03
   981.37    0.1676E-03
   984.65    0.1631E-03
   987.94    0.1588E-03
   991.22    0.1548E-03
   994.51    0.1509E-03
   997.79    0.1472E-03
  1001.08    0.1437E-03
  1004.36    0.1403E-03
  1007.65    0.1371E-03
  1010.93    0.1340E-03
  1014.21    0.1310E-03
  1017.50    0.1282E-03
  1020.78    0.1255E-03
  1024.07    0.1229E-03
  1027.35    0.1203E-03
  1030.64    0.1179E-03
  1033.92    0.1156E-03
  1037.21    0.1133E-03
  1040.49    0.1111E-03
  1043.77    0.1090E-03
  1047.06    0.1070E-03
  1050.34    0.1051E-03
  1053.63    0.1032E-03
  1056.91    0.1013E-03
  1060.20    0.9957E-04
  1063.48    0.9786E-04
  1066.77    0.9620E-04
  1070.05    0.9459E-04
  1073.33    0.9303E-04
  1076.62    0.9152E-04
  1079.90    0.9006E-04
  1083.19    0.8863E-04
  1086.47    0.8725E-04
  1089.76    0.8591E-04
  1093.04    0.8461E-04
  1096.33    0.8334E-04
  1099.61    0.8212E-04
  1102.89    0.8092E-04
  1106.18    0.7976E-04
  1109.46    0.7863E-04
  1112.75    0.7753E-04
  1116.03    0.7646E-04
  1119.32    0.7541E-04
  1122.60    0.7440E-04
  1125.89    0.7341E-04
  1129.17    0.7245E-04
  1132.45    0.7151E-04
  1135.74    0.7060E-04
  1139.02    0.6971E-04
  1142.31    0.6884E-04
  1145.59    0.6799E-04
  1148.88    0.6717E-04
  1152.16    0.6637E-04
  1155.45    0.6558E-04
  1158.73    0.6482E-04
  1162.01    0.6407E-04
  1165.30    0.6334E-04
  1168.58    0.6263E-04
  1171.87    0.6194E-04
  1175.15    0.6126E-04
  1178.44    0.6060E-04
  1181.72    0.5996E-04
  1185.01    0.5933E-04
  1188.29    0.5871E-04
  1191.57    0.5811E-04
  1194.86    0.5752E-04
  1198.14    0.5695E-04
  1201.43    0.5639E-04
  1204.71    0.5585E-04
  1208.00    0.5531E-04
  1211.28    0.5479E-04
  1214.57    0.5428E-04
  1217.85    0.5379E-04
  1221.13    0.5330E-04
  1224.42    0.5283E-04
  1227.70    0.5236E-04
  1230.99    0.5191E-04
  1234.27    0.5147E-04
  1237.56    0.5104E-04
  1240.84    0.5061E-04
  1244.13    0.5020E-04
  1247.41    0.4980E-04
  1250.69    0.4941E-04
  1253.98    0.4902E-04
  1257.26    0.4865E-04
  1260.55    0.4828E-04
  1263.83    0.4792E-04
  1267.12    0.4757E-04
  1270.40    0.4723E-04
  1273.69    0.4690E-04
  1276.97    0.4657E-04
  1280.25    0.4626E-04
  1283.54    0.4595E-04
  1286.82    0.4565E-04
  1290.11    0.4535E-04
  1293.39    0.4506E-04
  1296.68    0.4478E-04
  1299.96    0.4451E-04
  1303.24    0.4424E-04
  1306.53    0.4398E-04
  1309.81    0.4373E-04
  1313.10    0.4348E-04
  1316.38    0.4324E-04
  1319.67    0.4301E-04
  1322.95    0.4278E-04
  1326.24    0.4256E-04
  1329.52    0.4235E-04
  1332.80    0.4214E-04
  1336.09    0.4193E-04
  1339.37    0.4174E-04
  1342.66    0.4154E-04
  1345.94    0.4136E-04
  1349.23    0.4118E-04
  1352.51    0.4100E-04
  1355.80    0.4083E-04
  1359.08    0.4067E-04
  1362.36    0.4051E-04
  1365.65    0.4036E-04
  1368.93    0.4021E-04
  1372.22    0.4007E-04
  1375.50    0.3993E-04
  1378.79    0.3980E-04
  1382.07    0.3967E-04
  1385.36    0.3955E-04
  1388.64    0.3943E-04
  1391.92    0.3931E-04
  1395.21    0.3921E-04
  1398.49    0.3910E-04
  1401.78    0.3901E-04
  1405.06    0.3891E-04
  1408.35    0.3882E-04
  1411.63    0.3874E-04
  1414.92    0.3866E-04
  1418.20    0.3859E-04
  1421.48    0.3852E-04
  1424.77    0.3845E-04
  1428.05    0.3839E-04
  1431.34    0.3833E-04
  1434.62    0.3828E-04
  1437.91    0.3824E-04
  1441.19    0.3819E-04
  1444.48    0.3816E-04
  1447.76    0.3812E-04
  1451.04    0.3809E-04
  1454.33    0.3807E-04
  1457.61    0.3805E-04
  1460.90    0.3804E-04
  1464.18    0.3803E-04
  1467.47    0.3802E-04
  1470.75    0.3802E-04
  1474.04    0.3802E-04
  1477.32    0.3803E-04
  1480.60    0.3804E-04
  1483.89    0.3806E-04
  1487.17    0.3808E-04
  1490.46    0.3811E-04
  1493.74    0.3814E-04
  1497.03    0.3818E-04
  1500.31    0.3822E-04
  1503.60    0.3827E-04
  1506.88    0.3832E-04
  1510.16    0.3837E-04
  1513.45    0.3843E-04
  1516.73    0.3850E-04
  1520.02    0.3857E-04
  1523.30    0.3864E-04
  1526.59    0.3872E-04
  1529.87    0.3881E-04
  1533.16    0.3890E-04
  1536.44    0.3900E-04
  1539.72    0.3910E-04
  1543.01    0.3920E-04
  1546.29    0.3932E-04
  1549.58    0.3943E-04
  1552.86    0.3956E-04
  1556.15    0.3968E-04
  1559.43    0.3982E-04
  1562.72    0.3996E-04
  1566.00    0.4010E-04
  1569.28    0.4026E-04
  1572.57    0.4041E-04
  1575.85    0.4058E-04
  1579.14    0.4075E-04
  1582.42    0.4092E-04
  1585.71    0.4111E-04
  1588.99    0.4130E-04
  1592.28    0.4149E-04
  1595.56    0.4169E-04
  1598.84    0.4190E-04
  1602.13    0.4212E-04
  1605.41    0.4234E-04
  1608.70    0.4257E-04
  1611.98    0.4281E-04
  1615.27    0.4305E-04
  1618.55    0.4331E-04
  1621.84    0.4357E-04
  1625.12    0.4383E-04
  1628.40    0.4411E-04
  1631.69    0.4439E-04
  1634.97    0.4469E-04
  1638.26    0.4499E-04
  1641.54    0.4530E-04
  1644.83    0.4562E-04
  1648.11    0.4595E-04
  1651.40    0.4628E-04
  1654.68    0.4663E-04
  1657.96    0.4699E-04
  1661.25    0.4735E-04
  1664.53    0.4773E-04
  1667.82    0.4812E-04
  1671.10    0.4852E-04
  1674.39    0.4893E-04
  1677.67    0.4935E-04
  1680.96    0.4978E-04
  1684.24    0.5022E-04
  1687.52    0.5068E-04
  1690.81    0.5115E-04
  1694.09    0.5163E-04
  1697.38    0.5213E-04
  1700.66    0.5264E-04
  1703.95    0.5316E-04
  1707.23    0.5370E-04
  1710.52    0.5425E-04
  1713.80    0.5481E-04
  1717.08    0.5540E-04
  1720.37    0.5600E-04
  1723.65    0.5661E-04
  1726.94    0.5724E-04
  1730.22    0.5789E-04
  1733.51    0.5856E-04
  1736.79    0.5925E-04
  1740.08    0.5995E-04
  1743.36    0.6068E-04
  1746.64    0.6143E-04
  1749.93    0.6219E-04
  1753.21    0.6298E-04
  1756.50    0.6379E-04
  1759.78    0.6463E-04
  1763.07    0.6549E-04
  1766.35    0.6637E-04
  1769.64    0.6728E-04
  1772.92    0.6822E-04
  1776.20    0.6918E-04
  1779.49    0.7017E-04
  1782.77    0.7120E-04
  1786.06    0.7225E-04
  1789.34    0.7333E-04
  1792.63    0.7445E-04
  1795.91    0.7560E-04
  1799.20    0.7679E-04
  1802.48    0.7801E-04
  1805.76    0.7927E-04
  1809.05    0.8058E-04
  1812.33    0.8192E-04
  1815.62    0.8331E-04
  1818.90    0.8474E-04
  1822.19    0.8621E-04
  1825.47    0.8774E-04
  1828.76    0.8932E-04
  1832.04    0.9094E-04
  1835.32    0.9263E-04
  1838.61    0.9437E-04
  1841.89    0.9617E-04
  1845.18    0.9803E-04
  1848.46    0.9996E-04
  1851.75    0.1020E-03
  1855.03    0.1040E-03
  1858.31    0.1062E-03
  1861.60    0.1084E-03
  1864.88    0.1107E-03
  1868.17    0.1131E-03
  1871.45    0.1155E-03
  1874.74    0.1181E-03
  1878.02    0.1208E-03
  1881.31    0.1235E-03
  1884.59    0.1264E-03
  1887.87    0.1294E-03
  1891.16    0.1325E-03
  1894.44    0.1358E-03
  1897.73    0.1392E-03
  1901.01    0.1427E-03
  1904.30    0.1463E-03
  1907.58    0.1502E-03
  1910.87    0.1542E-03
  1914.15    0.1583E-03
  1917.43    0.1627E-03
  1920.72    0.1672E-03
  1924.00    0.1720E-03
  1927.29    0.1770E-03
  1930.57    0.1822E-03
  1933.86    0.1877E-03
  1937.14    0.1934E-03
  1940.43    0.1994E-03
  1943.71    0.2058E-03
  1946.99    0.2124E-03
  1950.28    0.2194E-03
  1953.56    0.2268E-03
  1956.85    0.2346E-03
  1960.13    0.2428E-03
  1963.42    0.2514E-03
  1966.70    0.2606E-03
  1969.99    0.2703E-03
  1973.27    0.2805E-03
  1976.55    0.2914E-03
  1979.84    0.3030E-03
  1983.12    0.3152E-03
  1986.41    0.3283E-03
  1989.69    0.3422E-03
  1992.98    0.3571E-03
  1996.26    0.3730E-03
  1999.55    0.3899E-03
  2002.83    0.4081E-03
  2006.11    0.4277E-03
  2009.40    0.4487E-03
  2012.68    0.4713E-03
  2015.97    0.4958E-03
  2019.25    0.5222E-03
  2022.54    0.5508E-03
  2025.82    0.5819E-03
  2029.11    0.6157E-03
  2032.39    0.6526E-03
  2035.67    0.6930E-03
  2038.96    0.7373E-03
  2042.24    0.7861E-03
  2045.53    0.8398E-03
  2048.81    0.8993E-03
  2052.10    0.9655E-03
  2055.38    0.1039E-02
  2058.67    0.1122E-02
  2061.95    0.1215E-02
  2065.23    0.1320E-02
  2068.52    0.1439E-02
  2071.80    0.1575E-02
  2075.09    0.1731E-02
  2078.37    0.1911E-02
  2081.66    0.2122E-02
  2084.94    0.2368E-02
  2088.23    0.2660E-02
  2091.51    0.3009E-02
  2094.79    0.3431E-02
  2098.08    0.3945E-02
  2101.36    0.4583E-02
  2104.65    0.5385E-02
  2107.93    0.6410E-02
  2111.22    0.7745E-02
  2114.50    0.9524E-02
  2117.79    0.1195E-01
  2121.07    0.1534E-01
  2124.35    0.2022E-01
  2127.64    0.2735E-01
  2130.92    0.3778E-01
  2134.21    0.5213E-01
  2137.49    0.6800E-01
  2140.78    0.7669E-01
  2144.06    0.7050E-01
  2147.35    0.5513E-01
  2150.63    0.4015E-01
  2153.91    0.2900E-01
  2157.20    0.2134E-01
  2160.48    0.1612E-01
  2163.77    0.1249E-01
  2167.05    0.9918E-02
  2170.34    0.8037E-02
  2173.62    0.6631E-02
  2176.91    0.5556E-02
  2180.19    0.4718E-02
  2183.47    0.4053E-02
  2186.76    0.3518E-02
  2190.04    0.3081E-02
  2193.33    0.2720E-02
  2196.61    0.2418E-02
  2199.90    0.2164E-02
  2203.18    0.1947E-02
  2206.47    0.1762E-02
  2209.75    0.1601E-02
  2213.03    0.1462E-02
  2216.32    0.1340E-02
  2219.60    0.1232E-02
  2222.89    0.1137E-02
  2226.17    0.1053E-02
  2229.46    0.9776E-03
  2232.74    0.9101E-03
  2236.03    0.8494E-03
  2239.31    0.7946E-03
  2242.59    0.7450E-03
  2245.88    0.6998E-03
  2249.16    0.6587E-03
  2252.45    0.6212E-03
  2255.73    0.5868E-03
  2259.02    0.5552E-03
  2262.30    0.5261E-03
  2265.59    0.4992E-03
  2268.87    0.4744E-03
  2272.15    0.4514E-03
  2275.44    0.4301E-03
  2278.72    0.4102E-03
  2282.01    0.3917E-03
  2285.29    0.3745E-03
  2288.58    0.3584E-03
  2291.86    0.3433E-03
  2295.15    0.3292E-03
  2298.43    0.3159E-03
  2301.71    0.3035E-03
  2305.00    0.2918E-03
  2308.28    0.2807E-03
  2311.57    0.2703E-03
  2314.85    0.2605E-03
  2318.14    0.2512E-03
  2321.42    0.2424E-03
  2324.71    0.2341E-03
  2327.99    0.2262E-03
  2331.27    0.2187E-03
  2334.56    0.2116E-03
  2337.84    0.2049E-03
  2341.13    0.1984E-03
  2344.41    0.1923E-03
  2347.70    0.1865E-03
  2350.98    0.1809E-03
  2354.27    0.1756E-03
  2357.55    0.1706E-03
  2360.83    0.1657E-03
  2364.12    0.1611E-03
  2367.40    0.1567E-03
  2370.69    0.1524E-03
  2373.97    0.1484E-03
  2377.26    0.1445E-03
  2380.54    0.1407E-03
  2383.83    0.1372E-03
  2387.11    0.1337E-03
  2390.39    0.1304E-03
  2393.68    0.1272E-03
  2396.96    0.1242E-03
  2400.25    0.1212E-03
  2403.53    0.1184E-03
  2406.82    0.1157E-03
  2410.10    0.1130E-03
  2413.38    0.1105E-03
  2416.67    0.1081E-03
  2419.95    0.1057E-03
  2423.24    0.1034E-03
  2426.52    0.1012E-03
  2429.81    0.9912E-04
  2433.09    0.9707E-04
  2436.38    0.9509E-04
  2439.66    0.9317E-04
  2442.94    0.9132E-04
  2446.23    0.8952E-04
  2449.51    0.8779E-04
  2452.80    0.8610E-04
  2456.08    0.8448E-04
  2459.37    0.8290E-04
  2462.65    0.8137E-04
  2465.94    0.7988E-04
  2469.22    0.7845E-04
  2472.50    0.7705E-04
  2475.79    0.7570E-04
  2479.07    0.7438E-04
  2482.36    0.7311E-04
  2485.64    0.7187E-04
  2488.93    0.7067E-04
  2492.21    0.6950E-04
  2495.50    0.6836E-04
  2498.78    0.6726E-04
  2502.06    0.6618E-04
  2505.35    0.6514E-04
  2508.63    0.6412E-04
  2511.92    0.6313E-04
  2515.20    0.6217E-04
  2518.49    0.6123E-04
  2521.77    0.6032E-04
  2525.06    0.5944E-04
  2528.34    0.5857E-04
  2531.62    0.5773E-04
  2534.91    0.5691E-04
  2538.19    0.5611E-04
  2541.48    0.5533E-04
  2544.76    0.5457E-04
  2548.05    0.5383E-04
  2551.33    0.5311E-04
  2554.62    0.5241E-04
  2557.90    0.5172E-04
  2561.18    0.5105E-04
  2564.47    0.5040E-04
  2567.75    0.4976E-04
  2571.04    0.4914E-04
  2574.32    0.4853E-04
  2577.61    0.4793E-04
  2580.89    0.4736E-04
  2584.18    0.4679E-04
  2587.46    0.4624E-04
  2590.74    0.4570E-04
  2594.03    0.4517E-04
  2597.31    0.4466E-04
  2600.60    0.4416E-04
  2603.88    0.4367E-04
  2607.17    0.4319E-04
  2610.45    0.4272E-04
  2613.74    0.4226E-04
  2617.02    0.4181E-04
  2620.30    0.4138E-04
  2623.59    0.4095E-04
  2626.87    0.4053E-04
  2630.16    0.4012E-04
  2633.44    0.3973E-04
  2636.73    0.3934E-04
  2640.01    0.3895E-04
  2643.30    0.3858E-04
  2646.58    0.3822E-04
  2649.86    0.3786E-04
  2653.15    0.3751E-04
  2656.43    0.3717E-04
  2659.72    0.3684E-04
  2663.00    0.3652E-04
  2666.29    0.3620E-04
  2669.57    0.3589E-04
  2672.86    0.3558E-04
  2676.14    0.3529E-04
  2679.42    0.3500E-04
  2682.71    0.3471E-04
  2685.99    0.3443E-04
  2689.28    0.3416E-04
  2692.56    0.3390E-04
  2695.85    0.3364E-04
  2699.13    0.3339E-04
  2702.42    0.3314E-04
  2705.70    0.3290E-04
  2708.98    0.3266E-04
  2712.27    0.3243E-04
  2715.55    0.3221E-04
  2718.84    0.3199E-04
  2722.12    0.3177E-04
  2725.41    0.3156E-04
  2728.69    0.3136E-04
  2731.98    0.3116E-04
  2735.26    0.3097E-04
  2738.54    0.3078E-04
  2741.83    0.3059E-04
  2745.11    0.3041E-04
  2748.40    0.3024E-04
  2751.68    0.3007E-04
  2754.97    0.2990E-04
  2758.25    0.2974E-04
  2761.54    0.2958E-04
  2764.82    0.2943E-04
  2768.10    0.2928E-04
  2771.39    0.2913E-04
  2774.67    0.2899E-04
  2777.96    0.2886E-04
  2781.24    0.2873E-04
  2784.53    0.2860E-04
  2787.81    0.2847E-04
  2791.10    0.2835E-04
  2794.38    0.2824E-04
  2797.66    0.2812E-04
  2800.95    0.2802E-04
  2804.23    0.2791E-04
  2807.52    0.2781E-04
  2810.80    0.2771E-04
  2814.09    0.2762E-04
  2817.37    0.2753E-04
  2820.66    0.2744E-04
  2823.94    0.2736E-04
  2827.22    0.2728E-04
  2830.51    0.2721E-04
  2833.79    0.2714E-04
  2837.08    0.2707E-04
  2840.36    0.2701E-04
  2843.65    0.2695E-04
  2846.93    0.2689E-04
  2850.22    0.2684E-04
  2853.50    0.2679E-04
  2856.78    0.2674E-04
  2860.07    0.2670E-04
  2863.35    0.2666E-04
  2866.64    0.2663E-04
  2869.92    0.2660E-04
  2873.21    0.2657E-04
  2876.49    0.2655E-04
  2879.78    0.2653E-04
  2883.06    0.2651E-04
  2886.34    0.2650E-04
  2889.63    0.2649E-04
  2892.91    0.2648E-04
  2896.20    0.2648E-04
  2899.48    0.2648E-04
  2902.77    0.2649E-04
  2906.05    0.2650E-04
  2909.34    0.2651E-04
  2912.62    0.2653E-04
  2915.90    0.2655E-04
  2919.19    0.2658E-04
  2922.47    0.2661E-04
  2925.76    0.2664E-04
  2929.04    0.2668E-04
  2932.33    0.2672E-04
  2935.61    0.2677E-04
  2938.90    0.2682E-04
  2942.18    0.2688E-04
  2945.46    0.2694E-04
  2948.75    0.2700E-04
  2952.03    0.2707E-04
  2955.32    0.2714E-04
  2958.60    0.2722E-04
  2961.89    0.2730E-04
  2965.17    0.2739E-04
  2968.45    0.2748E-04
  2971.74    0.2758E-04
  2975.02    0.2769E-04
  2978.31    0.2779E-04
  2981.59    0.2791E-04
  2984.88    0.2803E-04
  2988.16    0.2815E-04
  2991.45    0.2828E-04
  2994.73    0.2842E-04
  2998.01    0.2856E-04
  3001.30    0.2871E-04
  3004.58    0.2886E-04
  3007.87    0.2902E-04
  3011.15    0.2919E-04
  3014.44    0.2936E-04
  3017.72    0.2954E-04
  3021.01    0.2973E-04
  3024.29    0.2992E-04
  3027.57    0.3012E-04
  3030.86    0.3033E-04
  3034.14    0.3055E-04
  3037.43    0.3077E-04
  3040.71    0.3101E-04
  3044.00    0.3125E-04
  3047.28    0.3150E-04
  3050.57    0.3176E-04
  3053.85    0.3202E-04
  3057.13    0.3230E-04
  3060.42    0.3259E-04
  3063.70    0.3289E-04
  3066.99    0.3319E-04
  3070.27    0.3351E-04
  3073.56    0.3384E-04
  3076.84    0.3418E-04
  3080.13    0.3453E-04
  3083.41    0.3490E-04
  3086.69    0.3527E-04
  3089.98    0.3566E-04
  3093.26    0.3607E-04
  3096.55    0.3648E-04
  3099.83    0.3692E-04
  3103.12    0.3736E-04
  3106.40    0.3782E-04
  3109.69    0.3830E-04
  3112.97    0.3880E-04
  3116.25    0.3931E-04
  3119.54    0.3984E-04
  3122.82    0.4039E-04
  3126.11    0.4095E-04
  3129.39    0.4154E-04
  3132.68    0.4215E-04
  3135.96    0.4278E-04
  3139.25    0.4343E-04
  3142.53    0.4411E-04
  3145.81    0.4481E-04
  3149.10    0.4554E-04
  3152.38    0.4630E-04
  3155.67    0.4708E-04
  3158.95    0.4789E-04
  3162.24    0.4873E-04
  3165.52    0.4961E-04
  3168.81    0.5052E-04
  3172.09    0.5146E-04
  3175.37    0.5244E-04
  3178.66    0.5346E-04
  3181.94    0.5452E-04
  3185.23    0.5562E-04
  3188.51    0.5677E-04
  3191.80    0.5797E-04
  3195.08    0.5921E-04
  3198.37    0.6051E-04
  3201.65    0.6186E-04
  3204.93    0.6327E-04
  3208.22    0.6474E-04
  3211.50    0.6627E-04
  3214.79    0.6788E-04
  3218.07    0.6955E-04
  3221.36    0.7131E-04
  3224.64    0.7314E-04
  3227.93    0.7506E-04
  3231.21    0.7707E-04
  3234.49    0.7918E-04
  3237.78    0.8139E-04
  3241.06    0.8371E-04
  3244.35    0.8614E-04
  3247.63    0.8870E-04
  3250.92    0.9140E-04
  3254.20    0.9423E-04
  3257.49    0.9722E-04
  3260.77    0.1004E-03
  3264.05    0.1037E-03
  3267.34    0.1072E-03
  3270.62    0.1109E-03
  3273.91    0.1149E-03
  3277.19    0.1190E-03
  3280.48    0.1234E-03
  3283.76    0.1281E-03
  3287.05    0.1331E-03
  3290.33    0.1384E-03
  3293.61    0.1441E-03
  3296.90    0.1501E-03
  3300.18    0.1566E-03
  3303.47    0.1635E-03
  3306.75    0.1709E-03
  3310.04    0.1788E-03
  3313.32    0.1874E-03
  3316.61    0.1966E-03
  3319.89    0.2065E-03
  3323.17    0.2172E-03
  3326.46    0.2289E-03
  3329.74    0.2415E-03
  3333.03    0.2553E-03
  3336.31    0.2703E-03
  3339.60    0.2867E-03
  3342.88    0.3047E-03
  3346.17    0.3244E-03
  3349.45    0.3463E-03
  3352.73    0.3704E-03
  3356.02    0.3973E-03
  3359.30    0.4272E-03
  3362.59    0.4606E-03
  3365.87    0.4983E-03
  3369.16    0.5407E-03
  3372.44    0.5889E-03
  3375.73    0.6439E-03
  3379.01    0.7071E-03
  3382.29    0.7800E-03
  3385.58    0.8648E-03
  3388.86    0.9642E-03
  3392.15    0.1082E-02
  3395.43    0.1222E-02
  3398.72    0.1391E-02
  3402.00    0.1598E-02
  3405.29    0.1853E-02
  3408.57    0.2173E-02
  3411.85    0.2582E-02
  3415.14    0.3113E-02
  3418.42    0.3818E-02
  3421.71    0.4777E-02
  3424.99    0.6114E-02
  3428.28    0.8028E-02
  3431.56    0.1082E-01
  3434.85    0.1492E-01
  3438.13    0.2064E-01
  3441.41    0.2723E-01
  3444.70    0.3143E-01
  3447.98    0.2963E-01
  3451.27    0.2353E-01
  3454.55    0.1722E-01
  3457.84    0.1243E-01
  3461.12    0.9116E-02
  3464.41    0.6862E-02
  3467.69    0.5303E-02
  3470.97    0.4198E-02
  3474.26    0.3395E-02
  3477.54    0.2795E-02
  3480.83    0.2338E-02
  3484.11    0.1983E-02
  3487.40    0.1702E-02
  3490.68    0.1475E-02
  3493.97    0.1291E-02
  3497.25    0.1139E-02
  3500.53    0.1012E-02
  3503.82    0.9052E-03
  3507.10    0.8143E-03
  3510.39    0.7365E-03
