
 ------------------------------------------------------------
     normal          Raman Scattering Plot
 ------------------------------------------------------------
 Excitation wavelength  514.50 nm
 Convolution lineshape is lorentzian  
 FWHM   20.00  1/cm
 ------------------------------------------------------------
 ------------------------------------------------------------
 # of frequencies :    12
 ------------------------------------------------------------
 #  freq [ 1/cm]  S [Ang**4/amu]
 ------------------------------------------------------------
   1   246.49        0.0000
   2   588.73        5.6680
   3   588.73        5.6716
   4   666.84        0.0000
   5   666.84        0.0001
   6   681.55       10.7077
   7   681.55       10.7049
   8   905.50        2.0943
   9  2018.53        0.0000
  10  2217.68       99.2747
  11  3451.30       82.9921
  12  3451.89        0.0000
 ------------------------------------------------------------
   189.82    0.6426E-04
   193.15    0.6521E-04
   196.48    0.6619E-04
   199.81    0.6718E-04
   203.13    0.6820E-04
   206.46    0.6924E-04
   209.79    0.7031E-04
   213.12    0.7140E-04
   216.45    0.7252E-04
   219.78    0.7367E-04
   223.11    0.7485E-04
   226.44    0.7606E-04
   229.76    0.7730E-04
   233.09    0.7857E-04
   236.42    0.7988E-04
   239.75    0.8123E-04
   243.08    0.8261E-04
   246.41    0.8402E-04
   249.74    0.8546E-04
   253.06    0.8692E-04
   256.39    0.8842E-04
   259.72    0.8996E-04
   263.05    0.9156E-04
   266.38    0.9320E-04
   269.71    0.9489E-04
   273.04    0.9663E-04
   276.37    0.9842E-04
   279.69    0.1003E-03
   283.02    0.1022E-03
   286.35    0.1041E-03
   289.68    0.1061E-03
   293.01    0.1082E-03
   296.34    0.1103E-03
   299.67    0.1126E-03
   303.00    0.1148E-03
   306.32    0.1172E-03
   309.65    0.1196E-03
   312.98    0.1221E-03
   316.31    0.1247E-03
   319.64    0.1274E-03
   322.97    0.1301E-03
   326.30    0.1330E-03
   329.63    0.1359E-03
   332.95    0.1390E-03
   336.28    0.1421E-03
   339.61    0.1454E-03
   342.94    0.1488E-03
   346.27    0.1523E-03
   349.60    0.1560E-03
   352.93    0.1598E-03
   356.26    0.1637E-03
   359.58    0.1678E-03
   362.91    0.1721E-03
   366.24    0.1765E-03
   369.57    0.1811E-03
   372.90    0.1859E-03
   376.23    0.1909E-03
   379.56    0.1961E-03
   382.89    0.2015E-03
   386.21    0.2072E-03
   389.54    0.2131E-03
   392.87    0.2193E-03
   396.20    0.2258E-03
   399.53    0.2326E-03
   402.86    0.2397E-03
   406.19    0.2472E-03
   409.52    0.2550E-03
   412.84    0.2633E-03
   416.17    0.2720E-03
   419.50    0.2811E-03
   422.83    0.2907E-03
   426.16    0.3008E-03
   429.49    0.3115E-03
   432.82    0.3229E-03
   436.15    0.3348E-03
   439.47    0.3476E-03
   442.80    0.3610E-03
   446.13    0.3754E-03
   449.46    0.3906E-03
   452.79    0.4069E-03
   456.12    0.4243E-03
   459.45    0.4428E-03
   462.78    0.4627E-03
   466.10    0.4841E-03
   469.43    0.5071E-03
   472.76    0.5318E-03
   476.09    0.5586E-03
   479.42    0.5875E-03
   482.75    0.6190E-03
   486.08    0.6532E-03
   489.40    0.6905E-03
   492.73    0.7314E-03
   496.06    0.7763E-03
   499.39    0.8258E-03
   502.72    0.8806E-03
   506.05    0.9415E-03
   509.38    0.1009E-02
   512.71    0.1085E-02
   516.03    0.1171E-02
   519.36    0.1269E-02
   522.69    0.1379E-02
   526.02    0.1507E-02
   529.35    0.1654E-02
   532.68    0.1825E-02
   536.01    0.2027E-02
   539.34    0.2267E-02
   542.66    0.2555E-02
   545.99    0.2906E-02
   549.32    0.3339E-02
   552.65    0.3883E-02
   555.98    0.4576E-02
   559.31    0.5480E-02
   562.64    0.6685E-02
   565.97    0.8334E-02
   569.29    0.1065E-01
   572.62    0.1400E-01
   575.95    0.1892E-01
   579.28    0.2609E-01
   582.61    0.3570E-01
   585.94    0.4537E-01
   589.27    0.4877E-01
   592.60    0.4273E-01
   595.92    0.3267E-01
   599.25    0.2389E-01
   602.58    0.1765E-01
   605.91    0.1345E-01
   609.24    0.1064E-01
   612.57    0.8742E-02
   615.90    0.7443E-02
   619.23    0.6557E-02
   622.55    0.5968E-02
   625.88    0.5602E-02
   629.21    0.5417E-02
   632.54    0.5391E-02
   635.87    0.5513E-02
   639.20    0.5791E-02
   642.53    0.6243E-02
   645.86    0.6905E-02
   649.18    0.7836E-02
   652.51    0.9128E-02
   655.84    0.1093E-01
   659.17    0.1346E-01
   662.50    0.1711E-01
   665.83    0.2245E-01
   669.16    0.3037E-01
   672.49    0.4193E-01
   675.81    0.5717E-01
   679.14    0.7159E-01
   682.47    0.7502E-01
   685.80    0.6411E-01
   689.13    0.4817E-01
   692.46    0.3474E-01
   695.79    0.2523E-01
   699.12    0.1878E-01
   702.44    0.1438E-01
   705.77    0.1130E-01
   709.10    0.9086E-02
   712.43    0.7456E-02
   715.76    0.6225E-02
   719.09    0.5275E-02
   722.42    0.4528E-02
   725.74    0.3931E-02
   729.07    0.3446E-02
   732.40    0.3048E-02
   735.73    0.2716E-02
   739.06    0.2438E-02
   742.39    0.2201E-02
   745.72    0.1998E-02
   749.05    0.1824E-02
   752.37    0.1672E-02
   755.70    0.1539E-02
   759.03    0.1423E-02
   762.36    0.1320E-02
   765.69    0.1229E-02
   769.02    0.1147E-02
   772.35    0.1075E-02
   775.68    0.1009E-02
   779.00    0.9506E-03
   782.33    0.8975E-03
   785.66    0.8495E-03
   788.99    0.8060E-03
   792.32    0.7665E-03
   795.65    0.7306E-03
   798.98    0.6980E-03
   802.31    0.6684E-03
   805.63    0.6415E-03
   808.96    0.6172E-03
   812.29    0.5952E-03
   815.62    0.5755E-03
   818.95    0.5579E-03
   822.28    0.5424E-03
   825.61    0.5290E-03
   828.94    0.5176E-03
   832.26    0.5082E-03
   835.59    0.5011E-03
   838.92    0.4962E-03
   842.25    0.4938E-03
   845.58    0.4943E-03
   848.91    0.4979E-03
   852.24    0.5052E-03
   855.57    0.5170E-03
   858.89    0.5342E-03
   862.22    0.5582E-03
   865.55    0.5911E-03
   868.88    0.6354E-03
   872.21    0.6953E-03
   875.54    0.7767E-03
   878.87    0.8886E-03
   882.20    0.1045E-02
   885.52    0.1269E-02
   888.85    0.1594E-02
   892.18    0.2078E-02
   895.51    0.2791E-02
   898.84    0.3772E-02
   902.17    0.4831E-02
   905.50    0.5337E-02
   908.83    0.4820E-02
   912.15    0.3750E-02
   915.48    0.2758E-02
   918.81    0.2034E-02
   922.14    0.1540E-02
   925.47    0.1203E-02
   928.80    0.9677E-03
   932.13    0.7997E-03
   935.46    0.6760E-03
   938.78    0.5825E-03
   942.11    0.5103E-03
   945.44    0.4533E-03
   948.77    0.4074E-03
   952.10    0.3699E-03
   955.43    0.3388E-03
   958.76    0.3126E-03
   962.09    0.2904E-03
   965.41    0.2712E-03
   968.74    0.2546E-03
   972.07    0.2400E-03
   975.40    0.2272E-03
   978.73    0.2157E-03
   982.06    0.2055E-03
   985.39    0.1963E-03
   988.71    0.1879E-03
   992.04    0.1803E-03
   995.37    0.1734E-03
   998.70    0.1670E-03
  1002.03    0.1611E-03
  1005.36    0.1557E-03
  1008.69    0.1506E-03
  1012.02    0.1459E-03
  1015.34    0.1415E-03
  1018.67    0.1373E-03
  1022.00    0.1335E-03
  1025.33    0.1298E-03
  1028.66    0.1264E-03
  1031.99    0.1231E-03
  1035.32    0.1200E-03
  1038.65    0.1171E-03
  1041.97    0.1143E-03
  1045.30    0.1117E-03
  1048.63    0.1092E-03
  1051.96    0.1068E-03
  1055.29    0.1045E-03
  1058.62    0.1023E-03
  1061.95    0.1002E-03
  1065.28    0.9816E-04
  1068.60    0.9622E-04
  1071.93    0.9436E-04
  1075.26    0.9257E-04
  1078.59    0.9085E-04
  1081.92    0.8919E-04
  1085.25    0.8759E-04
  1088.58    0.8605E-04
  1091.91    0.8456E-04
  1095.23    0.8313E-04
  1098.56    0.8174E-04
  1101.89    0.8039E-04
  1105.22    0.7909E-04
  1108.55    0.7783E-04
  1111.88    0.7662E-04
  1115.21    0.7543E-04
  1118.54    0.7429E-04
  1121.86    0.7318E-04
  1125.19    0.7210E-04
  1128.52    0.7106E-04
  1131.85    0.7004E-04
  1135.18    0.6906E-04
  1138.51    0.6810E-04
  1141.84    0.6717E-04
  1145.17    0.6626E-04
  1148.49    0.6538E-04
  1151.82    0.6452E-04
  1155.15    0.6369E-04
  1158.48    0.6288E-04
  1161.81    0.6209E-04
  1165.14    0.6132E-04
  1168.47    0.6057E-04
  1171.80    0.5983E-04
  1175.12    0.5912E-04
  1178.45    0.5843E-04
  1181.78    0.5775E-04
  1185.11    0.5709E-04
  1188.44    0.5645E-04
  1191.77    0.5582E-04
  1195.10    0.5521E-04
  1198.43    0.5461E-04
  1201.75    0.5402E-04
  1205.08    0.5345E-04
  1208.41    0.5290E-04
  1211.74    0.5235E-04
  1215.07    0.5182E-04
  1218.40    0.5131E-04
  1221.73    0.5080E-04
  1225.05    0.5031E-04
  1228.38    0.4982E-04
  1231.71    0.4935E-04
  1235.04    0.4889E-04
  1238.37    0.4844E-04
  1241.70    0.4800E-04
  1245.03    0.4757E-04
  1248.36    0.4715E-04
  1251.68    0.4674E-04
  1255.01    0.4634E-04
  1258.34    0.4595E-04
  1261.67    0.4557E-04
  1265.00    0.4519E-04
  1268.33    0.4483E-04
  1271.66    0.4447E-04
  1274.99    0.4412E-04
  1278.31    0.4378E-04
  1281.64    0.4344E-04
  1284.97    0.4312E-04
  1288.30    0.4280E-04
  1291.63    0.4248E-04
  1294.96    0.4218E-04
  1298.29    0.4188E-04
  1301.62    0.4159E-04
  1304.94    0.4131E-04
  1308.27    0.4103E-04
  1311.60    0.4076E-04
  1314.93    0.4049E-04
  1318.26    0.4024E-04
  1321.59    0.3998E-04
  1324.92    0.3974E-04
  1328.25    0.3950E-04
  1331.57    0.3926E-04
  1334.90    0.3903E-04
  1338.23    0.3881E-04
  1341.56    0.3859E-04
  1344.89    0.3838E-04
  1348.22    0.3817E-04
  1351.55    0.3797E-04
  1354.88    0.3777E-04
  1358.20    0.3758E-04
  1361.53    0.3739E-04
  1364.86    0.3721E-04
  1368.19    0.3703E-04
  1371.52    0.3686E-04
  1374.85    0.3669E-04
  1378.18    0.3653E-04
  1381.51    0.3637E-04
  1384.83    0.3622E-04
  1388.16    0.3607E-04
  1391.49    0.3592E-04
  1394.82    0.3578E-04
  1398.15    0.3565E-04
  1401.48    0.3551E-04
  1404.81    0.3539E-04
  1408.14    0.3526E-04
  1411.46    0.3514E-04
  1414.79    0.3503E-04
  1418.12    0.3492E-04
  1421.45    0.3481E-04
  1424.78    0.3471E-04
  1428.11    0.3461E-04
  1431.44    0.3451E-04
  1434.77    0.3442E-04
  1438.09    0.3434E-04
  1441.42    0.3425E-04
  1444.75    0.3417E-04
  1448.08    0.3410E-04
  1451.41    0.3403E-04
  1454.74    0.3396E-04
  1458.07    0.3389E-04
  1461.39    0.3383E-04
  1464.72    0.3378E-04
  1468.05    0.3372E-04
  1471.38    0.3368E-04
  1474.71    0.3363E-04
  1478.04    0.3359E-04
  1481.37    0.3355E-04
  1484.70    0.3352E-04
  1488.02    0.3349E-04
  1491.35    0.3346E-04
  1494.68    0.3344E-04
  1498.01    0.3342E-04
  1501.34    0.3340E-04
  1504.67    0.3339E-04
  1508.00    0.3338E-04
  1511.33    0.3338E-04
  1514.65    0.3337E-04
  1517.98    0.3338E-04
  1521.31    0.3338E-04
  1524.64    0.3339E-04
  1527.97    0.3341E-04
  1531.30    0.3343E-04
  1534.63    0.3345E-04
  1537.96    0.3347E-04
  1541.28    0.3350E-04
  1544.61    0.3354E-04
  1547.94    0.3357E-04
  1551.27    0.3361E-04
  1554.60    0.3366E-04
  1557.93    0.3371E-04
  1561.26    0.3376E-04
  1564.59    0.3382E-04
  1567.91    0.3388E-04
  1571.24    0.3394E-04
  1574.57    0.3401E-04
  1577.90    0.3408E-04
  1581.23    0.3416E-04
  1584.56    0.3424E-04
  1587.89    0.3433E-04
  1591.22    0.3442E-04
  1594.54    0.3451E-04
  1597.87    0.3461E-04
  1601.20    0.3471E-04
  1604.53    0.3482E-04
  1607.86    0.3493E-04
  1611.19    0.3505E-04
  1614.52    0.3517E-04
  1617.85    0.3530E-04
  1621.17    0.3543E-04
  1624.50    0.3557E-04
  1627.83    0.3571E-04
  1631.16    0.3585E-04
  1634.49    0.3601E-04
  1637.82    0.3616E-04
  1641.15    0.3632E-04
  1644.48    0.3649E-04
  1647.80    0.3666E-04
  1651.13    0.3684E-04
  1654.46    0.3703E-04
  1657.79    0.3722E-04
  1661.12    0.3741E-04
  1664.45    0.3761E-04
  1667.78    0.3782E-04
  1671.11    0.3804E-04
  1674.43    0.3826E-04
  1677.76    0.3848E-04
  1681.09    0.3872E-04
  1684.42    0.3896E-04
  1687.75    0.3920E-04
  1691.08    0.3946E-04
  1694.41    0.3972E-04
  1697.74    0.3998E-04
  1701.06    0.4026E-04
  1704.39    0.4054E-04
  1707.72    0.4083E-04
  1711.05    0.4113E-04
  1714.38    0.4144E-04
  1717.71    0.4176E-04
  1721.04    0.4208E-04
  1724.36    0.4241E-04
  1727.69    0.4275E-04
  1731.02    0.4310E-04
  1734.35    0.4346E-04
  1737.68    0.4383E-04
  1741.01    0.4421E-04
  1744.34    0.4460E-04
  1747.67    0.4500E-04
  1750.99    0.4541E-04
  1754.32    0.4583E-04
  1757.65    0.4626E-04
  1760.98    0.4671E-04
  1764.31    0.4716E-04
  1767.64    0.4763E-04
  1770.97    0.4811E-04
  1774.30    0.4860E-04
  1777.62    0.4911E-04
  1780.95    0.4963E-04
  1784.28    0.5016E-04
  1787.61    0.5071E-04
  1790.94    0.5127E-04
  1794.27    0.5185E-04
  1797.60    0.5244E-04
  1800.93    0.5305E-04
  1804.25    0.5368E-04
  1807.58    0.5432E-04
  1810.91    0.5499E-04
  1814.24    0.5566E-04
  1817.57    0.5636E-04
  1820.90    0.5708E-04
  1824.23    0.5782E-04
  1827.56    0.5858E-04
  1830.88    0.5936E-04
  1834.21    0.6016E-04
  1837.54    0.6098E-04
  1840.87    0.6183E-04
  1844.20    0.6271E-04
  1847.53    0.6360E-04
  1850.86    0.6453E-04
  1854.19    0.6548E-04
  1857.51    0.6646E-04
  1860.84    0.6747E-04
  1864.17    0.6851E-04
  1867.50    0.6958E-04
  1870.83    0.7069E-04
  1874.16    0.7183E-04
  1877.49    0.7300E-04
  1880.82    0.7421E-04
  1884.14    0.7546E-04
  1887.47    0.7674E-04
  1890.80    0.7807E-04
  1894.13    0.7945E-04
  1897.46    0.8086E-04
  1900.79    0.8233E-04
  1904.12    0.8384E-04
  1907.45    0.8540E-04
  1910.77    0.8701E-04
  1914.10    0.8868E-04
  1917.43    0.9041E-04
  1920.76    0.9220E-04
  1924.09    0.9405E-04
  1927.42    0.9596E-04
  1930.75    0.9795E-04
  1934.08    0.1000E-03
  1937.40    0.1021E-03
  1940.73    0.1043E-03
  1944.06    0.1066E-03
  1947.39    0.1090E-03
  1950.72    0.1115E-03
  1954.05    0.1141E-03
  1957.38    0.1167E-03
  1960.70    0.1195E-03
  1964.03    0.1224E-03
  1967.36    0.1254E-03
  1970.69    0.1285E-03
  1974.02    0.1318E-03
  1977.35    0.1351E-03
  1980.68    0.1387E-03
  1984.01    0.1424E-03
  1987.33    0.1462E-03
  1990.66    0.1503E-03
  1993.99    0.1545E-03
  1997.32    0.1589E-03
  2000.65    0.1635E-03
  2003.98    0.1683E-03
  2007.31    0.1733E-03
  2010.64    0.1787E-03
  2013.96    0.1842E-03
  2017.29    0.1901E-03
  2020.62    0.1962E-03
  2023.95    0.2027E-03
  2027.28    0.2095E-03
  2030.61    0.2167E-03
  2033.94    0.2242E-03
  2037.27    0.2322E-03
  2040.59    0.2407E-03
  2043.92    0.2496E-03
  2047.25    0.2591E-03
  2050.58    0.2691E-03
  2053.91    0.2798E-03
  2057.24    0.2911E-03
  2060.57    0.3031E-03
  2063.90    0.3159E-03
  2067.22    0.3296E-03
  2070.55    0.3443E-03
  2073.88    0.3599E-03
  2077.21    0.3767E-03
  2080.54    0.3947E-03
  2083.87    0.4140E-03
  2087.20    0.4349E-03
  2090.53    0.4574E-03
  2093.85    0.4817E-03
  2097.18    0.5080E-03
  2100.51    0.5366E-03
  2103.84    0.5677E-03
  2107.17    0.6017E-03
  2110.50    0.6388E-03
  2113.83    0.6795E-03
  2117.16    0.7242E-03
  2120.48    0.7736E-03
  2123.81    0.8283E-03
  2127.14    0.8890E-03
  2130.47    0.9566E-03
  2133.80    0.1032E-02
  2137.13    0.1117E-02
  2140.46    0.1214E-02
  2143.79    0.1323E-02
  2147.11    0.1447E-02
  2150.44    0.1590E-02
  2153.77    0.1755E-02
  2157.10    0.1947E-02
  2160.43    0.2172E-02
  2163.76    0.2439E-02
  2167.09    0.2757E-02
  2170.42    0.3140E-02
  2173.74    0.3609E-02
  2177.07    0.4188E-02
  2180.40    0.4916E-02
  2183.73    0.5844E-02
  2187.06    0.7053E-02
  2190.39    0.8661E-02
  2193.72    0.1085E-01
  2197.05    0.1391E-01
  2200.37    0.1831E-01
  2203.70    0.2476E-01
  2207.03    0.3426E-01
  2210.36    0.4761E-01
  2213.69    0.6307E-01
  2217.02    0.7282E-01
  2220.35    0.6830E-01
  2223.67    0.5383E-01
  2227.00    0.3915E-01
  2230.33    0.2814E-01
  2233.66    0.2059E-01
  2236.99    0.1548E-01
  2240.32    0.1195E-01
  2243.65    0.9455E-02
  2246.98    0.7641E-02
  2250.30    0.6290E-02
  2253.63    0.5260E-02
  2256.96    0.4459E-02
  2260.29    0.3825E-02
  2263.62    0.3316E-02
  2266.95    0.2901E-02
  2270.28    0.2559E-02
  2273.61    0.2273E-02
  2276.93    0.2033E-02
  2280.26    0.1828E-02
  2283.59    0.1653E-02
  2286.92    0.1501E-02
  2290.25    0.1370E-02
  2293.58    0.1255E-02
  2296.91    0.1154E-02
  2300.24    0.1065E-02
  2303.56    0.9853E-03
  2306.89    0.9145E-03
  2310.22    0.8511E-03
  2313.55    0.7941E-03
  2316.88    0.7427E-03
  2320.21    0.6961E-03
  2323.54    0.6539E-03
  2326.87    0.6153E-03
  2330.19    0.5801E-03
  2333.52    0.5479E-03
  2336.85    0.5183E-03
  2340.18    0.4911E-03
  2343.51    0.4659E-03
  2346.84    0.4427E-03
  2350.17    0.4212E-03
  2353.50    0.4013E-03
  2356.82    0.3827E-03
  2360.15    0.3654E-03
  2363.48    0.3493E-03
  2366.81    0.3343E-03
  2370.14    0.3202E-03
  2373.47    0.3070E-03
  2376.80    0.2946E-03
  2380.13    0.2830E-03
  2383.45    0.2720E-03
  2386.78    0.2617E-03
  2390.11    0.2520E-03
  2393.44    0.2429E-03
  2396.77    0.2342E-03
  2400.10    0.2260E-03
  2403.43    0.2182E-03
  2406.76    0.2109E-03
  2410.08    0.2039E-03
  2413.41    0.1973E-03
  2416.74    0.1910E-03
  2420.07    0.1850E-03
  2423.40    0.1793E-03
  2426.73    0.1739E-03
  2430.06    0.1687E-03
  2433.39    0.1637E-03
  2436.71    0.1590E-03
  2440.04    0.1545E-03
  2443.37    0.1502E-03
  2446.70    0.1461E-03
  2450.03    0.1421E-03
  2453.36    0.1384E-03
  2456.69    0.1347E-03
  2460.01    0.1313E-03
  2463.34    0.1279E-03
  2466.67    0.1247E-03
  2470.00    0.1216E-03
  2473.33    0.1187E-03
  2476.66    0.1158E-03
  2479.99    0.1131E-03
  2483.32    0.1105E-03
  2486.64    0.1079E-03
  2489.97    0.1055E-03
  2493.30    0.1031E-03
  2496.63    0.1009E-03
  2499.96    0.9868E-04
  2503.29    0.9657E-04
  2506.62    0.9453E-04
  2509.95    0.9256E-04
  2513.27    0.9065E-04
  2516.60    0.8882E-04
  2519.93    0.8704E-04
  2523.26    0.8532E-04
  2526.59    0.8365E-04
  2529.92    0.8204E-04
  2533.25    0.8048E-04
  2536.58    0.7897E-04
  2539.90    0.7751E-04
  2543.23    0.7609E-04
  2546.56    0.7472E-04
  2549.89    0.7339E-04
  2553.22    0.7210E-04
  2556.55    0.7084E-04
  2559.88    0.6963E-04
  2563.21    0.6845E-04
  2566.53    0.6730E-04
  2569.86    0.6619E-04
  2573.19    0.6511E-04
  2576.52    0.6406E-04
  2579.85    0.6303E-04
  2583.18    0.6204E-04
  2586.51    0.6108E-04
  2589.84    0.6014E-04
  2593.16    0.5923E-04
  2596.49    0.5834E-04
  2599.82    0.5748E-04
  2603.15    0.5664E-04
  2606.48    0.5582E-04
  2609.81    0.5502E-04
  2613.14    0.5425E-04
  2616.47    0.5349E-04
  2619.79    0.5276E-04
  2623.12    0.5204E-04
  2626.45    0.5135E-04
  2629.78    0.5067E-04
  2633.11    0.5000E-04
  2636.44    0.4936E-04
  2639.77    0.4873E-04
  2643.10    0.4811E-04
  2646.42    0.4752E-04
  2649.75    0.4693E-04
  2653.08    0.4636E-04
  2656.41    0.4581E-04
  2659.74    0.4527E-04
  2663.07    0.4474E-04
  2666.40    0.4422E-04
  2669.73    0.4372E-04
  2673.05    0.4323E-04
  2676.38    0.4275E-04
  2679.71    0.4229E-04
  2683.04    0.4183E-04
  2686.37    0.4139E-04
  2689.70    0.4095E-04
  2693.03    0.4053E-04
  2696.35    0.4011E-04
  2699.68    0.3971E-04
  2703.01    0.3932E-04
  2706.34    0.3893E-04
  2709.67    0.3856E-04
  2713.00    0.3819E-04
  2716.33    0.3783E-04
  2719.66    0.3748E-04
  2722.98    0.3714E-04
  2726.31    0.3681E-04
  2729.64    0.3649E-04
  2732.97    0.3617E-04
  2736.30    0.3586E-04
  2739.63    0.3556E-04
  2742.96    0.3526E-04
  2746.29    0.3498E-04
  2749.61    0.3470E-04
  2752.94    0.3442E-04
  2756.27    0.3416E-04
  2759.60    0.3390E-04
  2762.93    0.3365E-04
  2766.26    0.3340E-04
  2769.59    0.3316E-04
  2772.92    0.3292E-04
  2776.24    0.3270E-04
  2779.57    0.3247E-04
  2782.90    0.3226E-04
  2786.23    0.3205E-04
  2789.56    0.3184E-04
  2792.89    0.3164E-04
  2796.22    0.3145E-04
  2799.55    0.3126E-04
  2802.87    0.3108E-04
  2806.20    0.3090E-04
  2809.53    0.3073E-04
  2812.86    0.3056E-04
  2816.19    0.3040E-04
  2819.52    0.3024E-04
  2822.85    0.3009E-04
  2826.18    0.2994E-04
  2829.50    0.2980E-04
  2832.83    0.2966E-04
  2836.16    0.2953E-04
  2839.49    0.2940E-04
  2842.82    0.2928E-04
  2846.15    0.2916E-04
  2849.48    0.2904E-04
  2852.81    0.2893E-04
  2856.13    0.2883E-04
  2859.46    0.2873E-04
  2862.79    0.2863E-04
  2866.12    0.2854E-04
  2869.45    0.2845E-04
  2872.78    0.2837E-04
  2876.11    0.2829E-04
  2879.44    0.2822E-04
  2882.76    0.2815E-04
  2886.09    0.2808E-04
  2889.42    0.2802E-04
  2892.75    0.2796E-04
  2896.08    0.2791E-04
  2899.41    0.2786E-04
  2902.74    0.2782E-04
  2906.07    0.2778E-04
  2909.39    0.2775E-04
  2912.72    0.2772E-04
  2916.05    0.2769E-04
  2919.38    0.2767E-04
  2922.71    0.2765E-04
  2926.04    0.2764E-04
  2929.37    0.2763E-04
  2932.70    0.2763E-04
  2936.02    0.2763E-04
  2939.35    0.2763E-04
  2942.68    0.2765E-04
  2946.01    0.2766E-04
  2949.34    0.2768E-04
  2952.67    0.2770E-04
  2956.00    0.2773E-04
  2959.32    0.2777E-04
  2962.65    0.2781E-04
  2965.98    0.2785E-04
  2969.31    0.2790E-04
  2972.64    0.2795E-04
  2975.97    0.2801E-04
  2979.30    0.2808E-04
  2982.63    0.2815E-04
  2985.95    0.2823E-04
  2989.28    0.2831E-04
  2992.61    0.2839E-04
  2995.94    0.2849E-04
  2999.27    0.2858E-04
  3002.60    0.2869E-04
  3005.93    0.2880E-04
  3009.26    0.2892E-04
  3012.58    0.2904E-04
  3015.91    0.2917E-04
  3019.24    0.2931E-04
  3022.57    0.2945E-04
  3025.90    0.2960E-04
  3029.23    0.2976E-04
  3032.56    0.2992E-04
  3035.89    0.3009E-04
  3039.21    0.3027E-04
  3042.54    0.3046E-04
  3045.87    0.3065E-04
  3049.20    0.3086E-04
  3052.53    0.3107E-04
  3055.86    0.3129E-04
  3059.19    0.3152E-04
  3062.52    0.3176E-04
  3065.84    0.3200E-04
  3069.17    0.3226E-04
  3072.50    0.3253E-04
  3075.83    0.3281E-04
  3079.16    0.3310E-04
  3082.49    0.3340E-04
  3085.82    0.3371E-04
  3089.15    0.3403E-04
  3092.47    0.3437E-04
  3095.80    0.3471E-04
  3099.13    0.3507E-04
  3102.46    0.3545E-04
  3105.79    0.3583E-04
  3109.12    0.3624E-04
  3112.45    0.3665E-04
  3115.78    0.3709E-04
  3119.10    0.3754E-04
  3122.43    0.3800E-04
  3125.76    0.3848E-04
  3129.09    0.3898E-04
  3132.42    0.3950E-04
  3135.75    0.4004E-04
  3139.08    0.4060E-04
  3142.41    0.4118E-04
  3145.73    0.4178E-04
  3149.06    0.4241E-04
  3152.39    0.4305E-04
  3155.72    0.4373E-04
  3159.05    0.4443E-04
  3162.38    0.4515E-04
  3165.71    0.4591E-04
  3169.04    0.4669E-04
  3172.36    0.4751E-04
  3175.69    0.4836E-04
  3179.02    0.4924E-04
  3182.35    0.5015E-04
  3185.68    0.5111E-04
  3189.01    0.5210E-04
  3192.34    0.5314E-04
  3195.66    0.5422E-04
  3198.99    0.5535E-04
  3202.32    0.5652E-04
  3205.65    0.5774E-04
  3208.98    0.5902E-04
  3212.31    0.6036E-04
  3215.64    0.6175E-04
  3218.97    0.6321E-04
  3222.29    0.6473E-04
  3225.62    0.6632E-04
  3228.95    0.6799E-04
  3232.28    0.6974E-04
  3235.61    0.7157E-04
  3238.94    0.7350E-04
  3242.27    0.7551E-04
  3245.60    0.7763E-04
  3248.92    0.7986E-04
  3252.25    0.8220E-04
  3255.58    0.8467E-04
  3258.91    0.8726E-04
  3262.24    0.9000E-04
  3265.57    0.9289E-04
  3268.90    0.9594E-04
  3272.23    0.9916E-04
  3275.55    0.1026E-03
  3278.88    0.1062E-03
  3282.21    0.1100E-03
  3285.54    0.1141E-03
  3288.87    0.1184E-03
  3292.20    0.1230E-03
  3295.53    0.1279E-03
  3298.86    0.1331E-03
  3302.18    0.1387E-03
  3305.51    0.1447E-03
  3308.84    0.1510E-03
  3312.17    0.1579E-03
  3315.50    0.1652E-03
  3318.83    0.1732E-03
  3322.16    0.1817E-03
  3325.49    0.1909E-03
  3328.81    0.2009E-03
  3332.14    0.2117E-03
  3335.47    0.2235E-03
  3338.80    0.2363E-03
  3342.13    0.2503E-03
  3345.46    0.2657E-03
  3348.79    0.2825E-03
  3352.12    0.3011E-03
  3355.44    0.3215E-03
  3358.77    0.3443E-03
  3362.10    0.3695E-03
  3365.43    0.3977E-03
  3368.76    0.4293E-03
  3372.09    0.4649E-03
  3375.42    0.5052E-03
  3378.75    0.5511E-03
  3382.07    0.6035E-03
  3385.40    0.6639E-03
  3388.73    0.7338E-03
  3392.06    0.8154E-03
  3395.39    0.9114E-03
  3398.72    0.1025E-02
  3402.05    0.1162E-02
  3405.38    0.1328E-02
  3408.70    0.1531E-02
  3412.03    0.1784E-02
  3415.36    0.2103E-02
  3418.69    0.2515E-02
  3422.02    0.3054E-02
  3425.35    0.3778E-02
  3428.68    0.4775E-02
  3432.00    0.6184E-02
  3435.33    0.8226E-02
  3438.66    0.1124E-01
  3441.99    0.1564E-01
  3445.32    0.2150E-01
  3448.65    0.2727E-01
  3451.98    0.2905E-01
  3455.31    0.2515E-01
  3458.63    0.1898E-01
  3461.96    0.1366E-01
  3465.29    0.9874E-02
  3468.62    0.7302E-02
  3471.95    0.5550E-02
  3475.28    0.4330E-02
  3478.61    0.3457E-02
  3481.94    0.2816E-02
  3485.26    0.2334E-02
  3488.59    0.1964E-02
  3491.92    0.1674E-02
  3495.25    0.1442E-02
  3498.58    0.1256E-02
  3501.91    0.1103E-02
  3505.24    0.9757E-03
  3508.57    0.8695E-03
  3511.89    0.7796E-03
  3515.22    0.7030E-03
