
 ------------------------------------------------------------
     normal          Raman Scattering Plot
 ------------------------------------------------------------
 Excitation wavelength  514.50 nm
 Convolution lineshape is lorentzian  
 FWHM   20.00  1/cm
 ------------------------------------------------------------
 ------------------------------------------------------------
 # of frequencies :    48
 ------------------------------------------------------------
 #  freq [ 1/cm]  S [Ang**4/amu]
 ------------------------------------------------------------
   1    32.31       85.3563
   2    58.30        8.5736
   3    58.30       17.4307
   4    63.19       19.3062
   5    98.10        2.3868
   6   148.84        6.7033
   7   148.84        2.6713
   8   196.22        0.4365
   9   208.50        2.1849
  10   233.69      608.3986
  11   273.17       95.9055
  12   273.17        3.3603
  13   333.95        3.2075
  14   350.13        3.2315
  15   418.34        1.8606
  16   418.34        1.5077
  17   471.10       39.3592
  18   471.46        1.6601
  19   474.48        0.0471
  20   505.23        0.0431
  21   522.75        1.5494
  22   522.75        1.6004
  23   572.46       40.9195
  24   614.95       10.6839
  25   614.96       35.2285
  26   634.14        3.8066
  27   643.82        2.1193
  28   666.18       59.0766
  29   666.18       52.4280
  30   685.59        1.2585
  31   712.79        6.7768
  32   714.90       85.5655
  33   714.90       80.5935
  34   761.07        2.9473
  35   935.86        0.4863
  36  1145.00      100.2999
  37  1336.84      505.1110
  38  1504.41       25.1148
  39  1952.96      110.7311
  40  1959.08   212936.3970
  41  2006.62      361.4451
  42  2069.77      196.7698
  43  2121.66      284.4835
  44  2135.15     2783.1632
  45  2177.59        7.5556
  46  2180.32    19644.0012
  47  3435.83      705.2724
  48  3436.63       13.5651
 ------------------------------------------------------------
   -24.16     1.607    
   -20.63     1.813    
   -17.10     2.062    
   -13.57     2.366    
   -10.05     2.742    
    -6.52     3.215    
    -2.99     3.821    
     0.54     4.612    
     4.06     5.670    
     7.59     7.122    
    11.12     9.174    
    14.65     12.16    
    18.18     16.62    
    21.70     23.34    
    25.23     32.92    
    28.76     43.81    
    32.29     49.42    
    35.81     44.38    
    39.34     33.99    
    42.87     24.98    
    46.40     19.08    
    49.93     15.79    
    53.45     14.37    
    56.98     13.81    
    60.51     12.90    
    64.04     11.08    
    67.57     8.822    
    71.09     6.795    
    74.62     5.279    
    78.15     4.208    
    81.68     3.450    
    85.20     2.904    
    88.73     2.505    
    92.26     2.213    
    95.79     1.989    
    99.32     1.786    
   102.84     1.588    
   106.37     1.411    
   109.90     1.265    
   113.43     1.148    
   116.96     1.054    
   120.48    0.9786    
   124.01    0.9186    
   127.54    0.8731    
   131.07    0.8423    
   134.59    0.8282    
   138.12    0.8351    
   141.65    0.8661    
   145.18    0.9114    
   148.71    0.9282    
   152.23    0.8793    
   155.76    0.7973    
   159.29    0.7267    
   162.82    0.6792    
   166.35    0.6513    
   169.87    0.6383    
   173.40    0.6372    
   176.93    0.6469    
   180.46    0.6673    
   183.98    0.6995    
   187.51    0.7455    
   191.04    0.8085    
   194.57    0.8928    
   198.10     1.004    
   201.62     1.153    
   205.15     1.355    
   208.68     1.629    
   212.21     2.011    
   215.73     2.570    
   219.26     3.415    
   222.79     4.701    
   226.32     6.561    
   229.85     8.741    
   233.37     9.992    
   236.90     9.097    
   240.43     6.973    
   243.96     5.031    
   247.49     3.670    
   251.01     2.789    
   254.54     2.238    
   258.07     1.916    
   261.60     1.770    
   265.12     1.777    
   268.65     1.893    
   272.18     1.968    
   275.71     1.807    
   279.24     1.470    
   282.76     1.145    
   286.29    0.9031    
   289.82    0.7330    
   293.35    0.6127    
   296.88    0.5250    
   300.40    0.4591    
   303.93    0.4081    
   307.46    0.3677    
   310.99    0.3354    
   314.51    0.3092    
   318.04    0.2883    
   321.57    0.2720    
   325.10    0.2603    
   328.63    0.2527    
   332.15    0.2466    
   335.68    0.2373    
   339.21    0.2248    
   342.74    0.2142    
   346.26    0.2069    
   349.79    0.1994    
   353.32    0.1876    
   356.85    0.1736    
   360.38    0.1611    
   363.90    0.1511    
   367.43    0.1430    
   370.96    0.1363    
   374.49    0.1307    
   378.02    0.1259    
   381.54    0.1217    
   385.07    0.1181    
   388.60    0.1150    
   392.13    0.1123    
   395.65    0.1102    
   399.18    0.1088    
   402.71    0.1081    
   406.24    0.1086    
   409.77    0.1107    
   413.29    0.1141    
   416.82    0.1168    
   420.35    0.1155    
   423.88    0.1104    
   427.41    0.1053    
   430.93    0.1019    
   434.46    0.1004    
   437.99    0.1005    
   441.52    0.1024    
   445.04    0.1063    
   448.57    0.1129    
   452.10    0.1235    
   455.63    0.1402    
   459.16    0.1663    
   462.68    0.2056    
   466.21    0.2564    
   469.74    0.2964    
   473.27    0.2897    
   476.79    0.2422    
   480.32    0.1913    
   483.85    0.1533    
   487.38    0.1277    
   490.91    0.1108    
   494.43    0.9941E-01
   497.96    0.9164E-01
   501.49    0.8637E-01
   505.02    0.8295E-01
   508.55    0.8106E-01
   512.07    0.8070E-01
   515.60    0.8191E-01
   519.13    0.8411E-01
   522.66    0.8515E-01
   526.18    0.8321E-01
   529.71    0.7996E-01
   533.24    0.7760E-01
   536.77    0.7680E-01
   540.30    0.7754E-01
   543.82    0.7984E-01
   547.35    0.8397E-01
   550.88    0.9053E-01
   554.41    0.1007    
   557.94    0.1162    
   561.46    0.1399    
   564.99    0.1744    
   568.52    0.2154    
   572.05    0.2404    
   575.57    0.2264    
   579.10    0.1894    
   582.63    0.1560    
   586.16    0.1341    
   589.69    0.1224    
   593.21    0.1187    
   596.74    0.1221    
   600.27    0.1332    
   603.80    0.1541    
   607.32    0.1870    
   610.85    0.2279    
   614.38    0.2546    
   617.91    0.2425    
   621.44    0.2063    
   624.96    0.1740    
   628.49    0.1545    
   632.02    0.1455    
   635.55    0.1423    
   639.08    0.1429    
   642.60    0.1488    
   646.13    0.1613    
   649.66    0.1834    
   653.19    0.2211    
   656.71    0.2813    
   660.24    0.3656    
   663.77    0.4487    
   667.30    0.4674    
   670.83    0.4035    
   674.35    0.3178    
   677.88    0.2522    
   681.41    0.2115    
   684.94    0.1897    
   688.47    0.1814    
   691.99    0.1850    
   695.52    0.2018    
   699.05    0.2358    
   702.58    0.2939    
   706.10    0.3847    
   709.63    0.5057    
   713.16    0.6074    
   716.69    0.6009    
   720.22    0.4899    
   723.74    0.3640    
   727.27    0.2685    
   730.80    0.2041    
   734.33    0.1612    
   737.85    0.1322    
   741.38    0.1120    
   744.91    0.9774E-01
   748.44    0.8761E-01
   751.97    0.8057E-01
   755.49    0.7588E-01
   759.02    0.7237E-01
   762.55    0.6826E-01
   766.08    0.6314E-01
   769.61    0.5822E-01
   773.13    0.5421E-01
   776.66    0.5106E-01
   780.19    0.4857E-01
   783.72    0.4654E-01
   787.24    0.4485E-01
   790.77    0.4342E-01
   794.30    0.4219E-01
   797.83    0.4111E-01
   801.36    0.4017E-01
   804.88    0.3934E-01
   808.41    0.3860E-01
   811.94    0.3794E-01
   815.47    0.3734E-01
   819.00    0.3680E-01
   822.52    0.3631E-01
   826.05    0.3587E-01
   829.58    0.3546E-01
   833.11    0.3509E-01
   836.63    0.3476E-01
   840.16    0.3445E-01
   843.69    0.3416E-01
   847.22    0.3390E-01
   850.75    0.3367E-01
   854.27    0.3345E-01
   857.80    0.3325E-01
   861.33    0.3306E-01
   864.86    0.3289E-01
   868.39    0.3274E-01
   871.91    0.3260E-01
   875.44    0.3247E-01
   878.97    0.3236E-01
   882.50    0.3226E-01
   886.02    0.3217E-01
   889.55    0.3208E-01
   893.08    0.3202E-01
   896.61    0.3196E-01
   900.14    0.3191E-01
   903.66    0.3187E-01
   907.19    0.3185E-01
   910.72    0.3185E-01
   914.25    0.3186E-01
   917.77    0.3191E-01
   921.30    0.3199E-01
   924.83    0.3213E-01
   928.36    0.3234E-01
   931.89    0.3260E-01
   935.41    0.3276E-01
   938.94    0.3268E-01
   942.47    0.3245E-01
   946.00    0.3225E-01
   949.53    0.3212E-01
   953.05    0.3204E-01
   956.58    0.3202E-01
   960.11    0.3202E-01
   963.64    0.3204E-01
   967.16    0.3207E-01
   970.69    0.3212E-01
   974.22    0.3218E-01
   977.75    0.3224E-01
   981.28    0.3232E-01
   984.80    0.3240E-01
   988.33    0.3249E-01
   991.86    0.3259E-01
   995.39    0.3269E-01
   998.92    0.3280E-01
  1002.44    0.3292E-01
  1005.97    0.3305E-01
  1009.50    0.3319E-01
  1013.03    0.3333E-01
  1016.55    0.3348E-01
  1020.08    0.3364E-01
  1023.61    0.3381E-01
  1027.14    0.3399E-01
  1030.67    0.3418E-01
  1034.19    0.3439E-01
  1037.72    0.3460E-01
  1041.25    0.3484E-01
  1044.78    0.3508E-01
  1048.30    0.3534E-01
  1051.83    0.3563E-01
  1055.36    0.3593E-01
  1058.89    0.3626E-01
  1062.42    0.3662E-01
  1065.94    0.3701E-01
  1069.47    0.3744E-01
  1073.00    0.3791E-01
  1076.53    0.3843E-01
  1080.06    0.3902E-01
  1083.58    0.3968E-01
  1087.11    0.4044E-01
  1090.64    0.4131E-01
  1094.17    0.4233E-01
  1097.69    0.4353E-01
  1101.22    0.4498E-01
  1104.75    0.4675E-01
  1108.28    0.4895E-01
  1111.81    0.5176E-01
  1115.33    0.5543E-01
  1118.86    0.6035E-01
  1122.39    0.6715E-01
  1125.92    0.7687E-01
  1129.45    0.9120E-01
  1132.97    0.1127    
  1136.50    0.1444    
  1140.03    0.1852    
  1143.56    0.2180    
  1147.08    0.2145    
  1150.61    0.1786    
  1154.14    0.1394    
  1157.67    0.1102    
  1161.20    0.9081E-01
  1164.72    0.7804E-01
  1168.25    0.6952E-01
  1171.78    0.6370E-01
  1175.31    0.5964E-01
  1178.83    0.5675E-01
  1182.36    0.5467E-01
  1185.89    0.5317E-01
  1189.42    0.5209E-01
  1192.95    0.5132E-01
  1196.47    0.5080E-01
  1200.00    0.5047E-01
  1203.53    0.5030E-01
  1207.06    0.5026E-01
  1210.59    0.5033E-01
  1214.11    0.5049E-01
  1217.64    0.5074E-01
  1221.17    0.5106E-01
  1224.70    0.5146E-01
  1228.22    0.5194E-01
  1231.75    0.5248E-01
  1235.28    0.5310E-01
  1238.81    0.5380E-01
  1242.34    0.5458E-01
  1245.86    0.5545E-01
  1249.39    0.5641E-01
  1252.92    0.5749E-01
  1256.45    0.5869E-01
  1259.98    0.6003E-01
  1263.50    0.6155E-01
  1267.03    0.6325E-01
  1270.56    0.6520E-01
  1274.09    0.6743E-01
  1277.61    0.7000E-01
  1281.14    0.7301E-01
  1284.67    0.7656E-01
  1288.20    0.8080E-01
  1291.73    0.8593E-01
  1295.25    0.9224E-01
  1298.78    0.1001    
  1302.31    0.1102    
  1305.84    0.1234    
  1309.36    0.1410    
  1312.89    0.1652    
  1316.42    0.1997    
  1319.95    0.2500    
  1323.48    0.3256    
  1327.00    0.4388    
  1330.53    0.5956    
  1334.06    0.7568    
  1337.59    0.8072    
  1341.12    0.6953    
  1344.64    0.5268    
  1348.17    0.3887    
  1351.70    0.2941    
  1355.23    0.2317    
  1358.75    0.1901    
  1362.28    0.1616    
  1365.81    0.1416    
  1369.34    0.1272    
  1372.87    0.1166    
  1376.39    0.1086    
  1379.92    0.1025    
  1383.45    0.9783E-01
  1386.98    0.9420E-01
  1390.51    0.9137E-01
  1394.03    0.8918E-01
  1397.56    0.8747E-01
  1401.09    0.8617E-01
  1404.62    0.8519E-01
  1408.14    0.8448E-01
  1411.67    0.8399E-01
  1415.20    0.8369E-01
  1418.73    0.8355E-01
  1422.26    0.8356E-01
  1425.78    0.8368E-01
  1429.31    0.8392E-01
  1432.84    0.8426E-01
  1436.37    0.8470E-01
  1439.90    0.8521E-01
  1443.42    0.8581E-01
  1446.95    0.8649E-01
  1450.48    0.8725E-01
  1454.01    0.8809E-01
  1457.53    0.8901E-01
  1461.06    0.9002E-01
  1464.59    0.9114E-01
  1468.12    0.9238E-01
  1471.65    0.9378E-01
  1475.17    0.9537E-01
  1478.70    0.9724E-01
  1482.23    0.9949E-01
  1485.76    0.1023    
  1489.28    0.1061    
  1492.81    0.1112    
  1496.34    0.1181    
  1499.87    0.1265    
  1503.40    0.1330    
  1506.92    0.1327    
  1510.45    0.1274    
  1513.98    0.1221    
  1517.51    0.1186    
  1521.04    0.1168    
  1524.56    0.1162    
  1528.09    0.1163    
  1531.62    0.1169    
  1535.15    0.1178    
  1538.67    0.1190    
  1542.20    0.1204    
  1545.73    0.1219    
  1549.26    0.1235    
  1552.79    0.1252    
  1556.31    0.1271    
  1559.84    0.1290    
  1563.37    0.1310    
  1566.90    0.1330    
  1570.43    0.1352    
  1573.95    0.1374    
  1577.48    0.1397    
  1581.01    0.1421    
  1584.54    0.1446    
  1588.06    0.1471    
  1591.59    0.1497    
  1595.12    0.1524    
  1598.65    0.1552    
  1602.18    0.1581    
  1605.70    0.1611    
  1609.23    0.1641    
  1612.76    0.1673    
  1616.29    0.1706    
  1619.81    0.1739    
  1623.34    0.1774    
  1626.87    0.1810    
  1630.40    0.1847    
  1633.93    0.1886    
  1637.45    0.1925    
  1640.98    0.1966    
  1644.51    0.2009    
  1648.04    0.2053    
  1651.57    0.2098    
  1655.09    0.2145    
  1658.62    0.2194    
  1662.15    0.2244    
  1665.68    0.2296    
  1669.20    0.2351    
  1672.73    0.2407    
  1676.26    0.2465    
  1679.79    0.2526    
  1683.32    0.2589    
  1686.84    0.2654    
  1690.37    0.2722    
  1693.90    0.2793    
  1697.43    0.2866    
  1700.96    0.2943    
  1704.48    0.3022    
  1708.01    0.3106    
  1711.54    0.3192    
  1715.07    0.3283    
  1718.59    0.3377    
  1722.12    0.3476    
  1725.65    0.3579    
  1729.18    0.3687    
  1732.71    0.3800    
  1736.23    0.3918    
  1739.76    0.4042    
  1743.29    0.4172    
  1746.82    0.4309    
  1750.34    0.4453    
  1753.87    0.4604    
  1757.40    0.4763    
  1760.93    0.4930    
  1764.46    0.5107    
  1767.98    0.5293    
  1771.51    0.5490    
  1775.04    0.5698    
  1778.57    0.5919    
  1782.10    0.6152    
  1785.62    0.6400    
  1789.15    0.6664    
  1792.68    0.6944    
  1796.21    0.7243    
  1799.73    0.7561    
  1803.26    0.7901    
  1806.79    0.8265    
  1810.32    0.8654    
  1813.85    0.9072    
  1817.37    0.9522    
  1820.90     1.001    
  1824.43     1.053    
  1827.96     1.109    
  1831.49     1.170    
  1835.01     1.237    
  1838.54     1.309    
  1842.07     1.387    
  1845.60     1.474    
  1849.12     1.568    
  1852.65     1.672    
  1856.18     1.786    
  1859.71     1.913    
  1863.24     2.054    
  1866.76     2.211    
  1870.29     2.386    
  1873.82     2.584    
  1877.35     2.807    
  1880.87     3.060    
  1884.40     3.349    
  1887.93     3.681    
  1891.46     4.064    
  1894.99     4.511    
  1898.51     5.035    
  1902.04     5.655    
  1905.57     6.396    
  1909.10     7.292    
  1912.63     8.387    
  1916.15     9.744    
  1919.68     11.45    
  1923.21     13.64    
  1926.74     16.50    
  1930.26     20.32    
  1933.79     25.56    
  1937.32     32.95    
  1940.85     43.69    
  1944.38     59.73    
  1947.90     83.97    
  1951.43     119.1    
  1954.96     161.3    
  1958.49     188.0    
  1962.02     173.6    
  1965.54     133.0    
  1969.07     94.39    
  1972.60     66.73    
  1976.13     48.34    
  1979.65     36.11    
  1983.18     27.78    
  1986.71     21.95    
  1990.24     17.75    
  1993.77     14.64    
  1997.29     12.31    
  2000.82     10.53    
  2004.35     9.134    
  2007.88     7.974    
  2011.40     6.970    
  2014.93     6.117    
  2018.46     5.411    
  2021.99     4.826    
  2025.52     4.337    
  2029.04     3.924    
  2032.57     3.571    
  2036.10     3.269    
  2039.63     3.008    
  2043.16     2.781    
  2046.68     2.585    
  2050.21     2.415    
  2053.74     2.271    
  2057.27     2.150    
  2060.79     2.054    
  2064.32     1.981    
  2067.85     1.916    
  2071.38     1.834    
  2074.91     1.731    
  2078.43     1.633    
  2081.96     1.552    
  2085.49     1.490    
  2089.02     1.444    
  2092.55     1.412    
  2096.07     1.395    
  2099.60     1.394    
  2103.13     1.411    
  2106.66     1.454    
  2110.18     1.529    
  2113.71     1.651    
  2117.24     1.830    
  2120.77     2.066    
  2124.30     2.363    
  2127.82     2.764    
  2131.35     3.249    
  2134.88     3.553    
  2138.41     3.413    
  2141.94     3.043    
  2145.46     2.762    
  2148.99     2.672    
  2152.52     2.772    
  2156.05     3.068    
  2159.57     3.601    
  2163.10     4.463    
  2166.63     5.821    
  2170.16     7.910    
  2173.69     10.88    
  2177.21     14.07    
  2180.74     15.32    
  2184.27     13.31    
  2187.80     9.967    
  2191.32     7.139    
  2194.85     5.177    
  2198.38     3.873    
  2201.91     2.997    
  2205.44     2.392    
  2208.96     1.960    
  2212.49     1.643    
  2216.02     1.404    
  2219.55     1.219    
  2223.08     1.073    
  2226.60    0.9561    
  2230.13    0.8603    
  2233.66    0.7808    
  2237.19    0.7141    
  2240.71    0.6574    
  2244.24    0.6087    
  2247.77    0.5665    
  2251.30    0.5296    
  2254.83    0.4971    
  2258.35    0.4682    
  2261.88    0.4425    
  2265.41    0.4194    
  2268.94    0.3985    
  2272.47    0.3796    
  2275.99    0.3623    
  2279.52    0.3465    
  2283.05    0.3320    
  2286.58    0.3186    
  2290.10    0.3062    
  2293.63    0.2947    
  2297.16    0.2840    
  2300.69    0.2741    
  2304.22    0.2647    
  2307.74    0.2560    
  2311.27    0.2478    
  2314.80    0.2400    
  2318.33    0.2327    
  2321.85    0.2258    
  2325.38    0.2193    
  2328.91    0.2131    
  2332.44    0.2072    
  2335.97    0.2016    
  2339.49    0.1963    
  2343.02    0.1912    
  2346.55    0.1863    
  2350.08    0.1817    
  2353.61    0.1773    
  2357.13    0.1730    
  2360.66    0.1689    
  2364.19    0.1650    
  2367.72    0.1613    
  2371.24    0.1577    
  2374.77    0.1542    
  2378.30    0.1509    
  2381.83    0.1477    
  2385.36    0.1446    
  2388.88    0.1416    
  2392.41    0.1387    
  2395.94    0.1359    
  2399.47    0.1332    
  2403.00    0.1306    
  2406.52    0.1281    
  2410.05    0.1256    
  2413.58    0.1233    
  2417.11    0.1210    
  2420.63    0.1188    
  2424.16    0.1166    
  2427.69    0.1145    
  2431.22    0.1125    
  2434.75    0.1105    
  2438.27    0.1086    
  2441.80    0.1068    
  2445.33    0.1049    
  2448.86    0.1032    
  2452.38    0.1015    
  2455.91    0.9981E-01
  2459.44    0.9819E-01
  2462.97    0.9662E-01
  2466.50    0.9508E-01
  2470.02    0.9358E-01
  2473.55    0.9212E-01
  2477.08    0.9070E-01
  2480.61    0.8931E-01
  2484.14    0.8795E-01
  2487.66    0.8663E-01
  2491.19    0.8534E-01
  2494.72    0.8408E-01
  2498.25    0.8285E-01
  2501.77    0.8165E-01
  2505.30    0.8047E-01
  2508.83    0.7933E-01
  2512.36    0.7821E-01
  2515.89    0.7711E-01
  2519.41    0.7604E-01
  2522.94    0.7499E-01
  2526.47    0.7396E-01
  2530.00    0.7296E-01
  2533.53    0.7198E-01
  2537.05    0.7102E-01
  2540.58    0.7008E-01
  2544.11    0.6915E-01
  2547.64    0.6825E-01
  2551.16    0.6737E-01
  2554.69    0.6650E-01
  2558.22    0.6565E-01
  2561.75    0.6482E-01
  2565.28    0.6401E-01
  2568.80    0.6321E-01
  2572.33    0.6242E-01
  2575.86    0.6166E-01
  2579.39    0.6090E-01
  2582.91    0.6016E-01
  2586.44    0.5944E-01
  2589.97    0.5873E-01
  2593.50    0.5803E-01
  2597.03    0.5734E-01
  2600.55    0.5667E-01
  2604.08    0.5601E-01
  2607.61    0.5536E-01
  2611.14    0.5473E-01
  2614.67    0.5410E-01
  2618.19    0.5349E-01
  2621.72    0.5288E-01
  2625.25    0.5229E-01
  2628.78    0.5171E-01
  2632.30    0.5113E-01
  2635.83    0.5057E-01
  2639.36    0.5002E-01
  2642.89    0.4948E-01
  2646.42    0.4894E-01
  2649.94    0.4842E-01
  2653.47    0.4790E-01
  2657.00    0.4739E-01
  2660.53    0.4689E-01
  2664.06    0.4640E-01
  2667.58    0.4592E-01
  2671.11    0.4544E-01
  2674.64    0.4497E-01
  2678.17    0.4451E-01
  2681.69    0.4406E-01
  2685.22    0.4361E-01
  2688.75    0.4317E-01
  2692.28    0.4274E-01
  2695.81    0.4232E-01
  2699.33    0.4190E-01
  2702.86    0.4148E-01
  2706.39    0.4108E-01
  2709.92    0.4068E-01
  2713.45    0.4028E-01
  2716.97    0.3989E-01
  2720.50    0.3951E-01
  2724.03    0.3914E-01
  2727.56    0.3876E-01
  2731.08    0.3840E-01
  2734.61    0.3804E-01
  2738.14    0.3768E-01
  2741.67    0.3733E-01
  2745.20    0.3699E-01
  2748.72    0.3665E-01
  2752.25    0.3631E-01
  2755.78    0.3598E-01
  2759.31    0.3566E-01
  2762.83    0.3533E-01
  2766.36    0.3502E-01
  2769.89    0.3471E-01
  2773.42    0.3440E-01
  2776.95    0.3409E-01
  2780.47    0.3379E-01
  2784.00    0.3350E-01
  2787.53    0.3321E-01
  2791.06    0.3292E-01
  2794.59    0.3263E-01
  2798.11    0.3235E-01
  2801.64    0.3208E-01
  2805.17    0.3181E-01
  2808.70    0.3154E-01
  2812.22    0.3127E-01
  2815.75    0.3101E-01
  2819.28    0.3075E-01
  2822.81    0.3050E-01
  2826.34    0.3024E-01
  2829.86    0.2999E-01
  2833.39    0.2975E-01
  2836.92    0.2951E-01
  2840.45    0.2927E-01
  2843.98    0.2903E-01
  2847.50    0.2880E-01
  2851.03    0.2857E-01
  2854.56    0.2834E-01
  2858.09    0.2812E-01
  2861.61    0.2789E-01
  2865.14    0.2767E-01
  2868.67    0.2746E-01
  2872.20    0.2724E-01
  2875.73    0.2703E-01
  2879.25    0.2682E-01
  2882.78    0.2662E-01
  2886.31    0.2641E-01
  2889.84    0.2621E-01
  2893.36    0.2601E-01
  2896.89    0.2582E-01
  2900.42    0.2562E-01
  2903.95    0.2543E-01
  2907.48    0.2524E-01
  2911.00    0.2505E-01
  2914.53    0.2487E-01
  2918.06    0.2469E-01
  2921.59    0.2450E-01
  2925.12    0.2433E-01
  2928.64    0.2415E-01
  2932.17    0.2397E-01
  2935.70    0.2380E-01
  2939.23    0.2363E-01
  2942.75    0.2346E-01
  2946.28    0.2330E-01
  2949.81    0.2313E-01
  2953.34    0.2297E-01
  2956.87    0.2281E-01
  2960.39    0.2265E-01
  2963.92    0.2249E-01
  2967.45    0.2233E-01
  2970.98    0.2218E-01
  2974.51    0.2203E-01
  2978.03    0.2188E-01
  2981.56    0.2173E-01
  2985.09    0.2158E-01
  2988.62    0.2143E-01
  2992.14    0.2129E-01
  2995.67    0.2115E-01
  2999.20    0.2101E-01
  3002.73    0.2087E-01
  3006.26    0.2073E-01
  3009.78    0.2059E-01
  3013.31    0.2046E-01
  3016.84    0.2032E-01
  3020.37    0.2019E-01
  3023.89    0.2006E-01
  3027.42    0.1993E-01
  3030.95    0.1980E-01
  3034.48    0.1968E-01
  3038.01    0.1955E-01
  3041.53    0.1943E-01
  3045.06    0.1931E-01
  3048.59    0.1919E-01
  3052.12    0.1907E-01
  3055.65    0.1895E-01
  3059.17    0.1883E-01
  3062.70    0.1871E-01
  3066.23    0.1860E-01
  3069.76    0.1849E-01
  3073.28    0.1837E-01
  3076.81    0.1826E-01
  3080.34    0.1815E-01
  3083.87    0.1805E-01
  3087.40    0.1794E-01
  3090.92    0.1783E-01
  3094.45    0.1773E-01
  3097.98    0.1762E-01
  3101.51    0.1752E-01
  3105.04    0.1742E-01
  3108.56    0.1732E-01
  3112.09    0.1722E-01
  3115.62    0.1712E-01
  3119.15    0.1703E-01
  3122.67    0.1693E-01
  3126.20    0.1684E-01
  3129.73    0.1674E-01
  3133.26    0.1665E-01
  3136.79    0.1656E-01
  3140.31    0.1647E-01
  3143.84    0.1638E-01
  3147.37    0.1629E-01
  3150.90    0.1621E-01
  3154.42    0.1612E-01
  3157.95    0.1604E-01
  3161.48    0.1595E-01
  3165.01    0.1587E-01
  3168.54    0.1579E-01
  3172.06    0.1571E-01
  3175.59    0.1563E-01
  3179.12    0.1556E-01
  3182.65    0.1548E-01
  3186.18    0.1540E-01
  3189.70    0.1533E-01
  3193.23    0.1526E-01
  3196.76    0.1519E-01
  3200.29    0.1512E-01
  3203.81    0.1505E-01
  3207.34    0.1498E-01
  3210.87    0.1492E-01
  3214.40    0.1485E-01
  3217.93    0.1479E-01
  3221.45    0.1473E-01
  3224.98    0.1467E-01
  3228.51    0.1461E-01
  3232.04    0.1455E-01
  3235.57    0.1450E-01
  3239.09    0.1445E-01
  3242.62    0.1440E-01
  3246.15    0.1435E-01
  3249.68    0.1430E-01
  3253.20    0.1426E-01
  3256.73    0.1421E-01
  3260.26    0.1417E-01
  3263.79    0.1414E-01
  3267.32    0.1410E-01
  3270.84    0.1407E-01
  3274.37    0.1404E-01
  3277.90    0.1402E-01
  3281.43    0.1399E-01
  3284.95    0.1398E-01
  3288.48    0.1396E-01
  3292.01    0.1395E-01
  3295.54    0.1395E-01
  3299.07    0.1395E-01
  3302.59    0.1396E-01
  3306.12    0.1397E-01
  3309.65    0.1399E-01
  3313.18    0.1402E-01
  3316.71    0.1406E-01
  3320.23    0.1410E-01
  3323.76    0.1416E-01
  3327.29    0.1423E-01
  3330.82    0.1431E-01
  3334.34    0.1441E-01
  3337.87    0.1453E-01
  3341.40    0.1467E-01
  3344.93    0.1483E-01
  3348.46    0.1502E-01
  3351.98    0.1524E-01
  3355.51    0.1550E-01
  3359.04    0.1580E-01
  3362.57    0.1615E-01
  3366.10    0.1657E-01
  3369.62    0.1706E-01
  3373.15    0.1765E-01
  3376.68    0.1835E-01
  3380.21    0.1919E-01
  3383.73    0.2021E-01
  3387.26    0.2146E-01
  3390.79    0.2302E-01
  3394.32    0.2496E-01
  3397.85    0.2745E-01
  3401.37    0.3067E-01
  3404.90    0.3494E-01
  3408.43    0.4071E-01
  3411.96    0.4873E-01
  3415.49    0.6021E-01
  3419.01    0.7711E-01
  3422.54    0.1026    
  3426.07    0.1408    
  3429.60    0.1937    
  3433.12    0.2477    
  3436.65    0.2636    
  3440.18    0.2249    
  3443.71    0.1678    
  3447.24    0.1212    
  3450.76    0.8924E-01
  3454.29    0.6805E-01
  3457.82    0.5384E-01
  3461.35    0.4403E-01
  3464.87    0.3705E-01
  3468.40    0.3194E-01
  3471.93    0.2810E-01
  3475.46    0.2514E-01
  3478.99    0.2282E-01
  3482.51    0.2097E-01
  3486.04    0.1947E-01
  3489.57    0.1823E-01
  3493.10    0.1719E-01
  3496.63    0.1632E-01
  3500.15    0.1558E-01
