
 ------------------------------------------------------------
     normal          Raman Scattering Plot
 ------------------------------------------------------------
 Excitation wavelength  514.50 nm
 Convolution lineshape is lorentzian  
 FWHM   20.00  1/cm
 ------------------------------------------------------------
 ------------------------------------------------------------
 # of frequencies :    48
 ------------------------------------------------------------
 #  freq [ 1/cm]  S [Ang**4/amu]
 ------------------------------------------------------------
   1    51.32      238.7228
   2    80.11        3.4532
   3    81.83     1061.7044
   4   122.23        8.9045
   5   124.55       15.1326
   6   174.18        4.0000
   7   174.40       10.0365
   8   232.12       29.4973
   9   233.01        0.0261
  10   233.67        1.2141
  11   296.93        2.7951
  12   297.05        3.3515
  13   357.08        0.0462
  14   357.22     1294.9866
  15   438.31       27.7352
  16   438.32        0.8968
  17   464.96        4.7818
  18   490.57       16.6083
  19   490.65        0.0091
  20   541.05        1.4454
  21   541.07        1.7676
  22   588.78       38.3050
  23   589.33        0.0206
  24   626.72       65.3621
  25   626.76        4.1802
  26   648.59        2.9540
  27   652.44        0.3940
  28   671.91      103.6381
  29   672.10       59.9041
  30   687.95       21.1708
  31   697.21       25.5557
  32   698.35        2.1520
  33   729.86       75.0830
  34   729.88       70.0722
  35   907.39       54.4641
  36  1111.00      247.2795
  37  1298.63        7.4594
  38  1459.19      229.9492
  39  1903.83   210494.0157
  40  1913.30     1120.3879
  41  1962.60       26.5813
  42  2020.15       24.7498
  43  2060.69       17.3129
  44  2081.67     3354.0319
  45  2118.79    19804.7867
  46  2120.35     2753.5254
  47  3425.60     1999.9672
  48  3427.34       75.1471
 ------------------------------------------------------------
    -5.18     3.087    
    -1.68     3.426    
     1.82     3.828    
     5.32     4.307    
     8.82     4.888    
    12.32     5.600    
    15.82     6.488    
    19.32     7.616    
    22.82     9.082    
    26.32     11.03    
    29.82     13.71    
    33.32     17.49    
    36.82     22.98    
    40.32     31.07    
    43.82     42.59    
    47.32     56.35    
    50.82     65.70    
    54.31     63.61    
    57.81     54.88    
    61.31     48.15    
    64.81     46.77    
    68.31     51.49    
    71.81     63.09    
    75.31     81.83    
    78.81     102.5    
    82.31     109.7    
    85.81     94.68    
    89.31     70.76    
    92.81     50.60    
    96.31     36.55    
    99.81     27.18    
   103.31     20.87    
   106.81     16.53    
   110.31     13.48    
   113.81     11.32    
   117.31     9.793    
   120.81     8.665    
   124.30     7.674    
   127.80     6.669    
   131.30     5.731    
   134.80     4.952    
   138.30     4.331    
   141.80     3.836    
   145.30     3.435    
   148.80     3.106    
   152.30     2.834    
   155.80     2.610    
   159.30     2.429    
   162.80     2.290    
   166.30     2.195    
   169.80     2.134    
   173.30     2.067    
   176.80     1.939    
   180.30     1.766    
   183.80     1.601    
   187.30     1.466    
   190.80     1.358    
   194.30     1.270    
   197.79     1.198    
   201.29     1.139    
   204.79     1.091    
   208.29     1.053    
   211.79     1.028    
   215.29     1.018    
   218.79     1.028    
   222.29     1.066    
   225.79     1.136    
   229.29     1.213    
   232.79     1.223    
   236.29     1.129    
   239.79    0.9967    
   243.29    0.8846    
   246.79    0.8030    
   250.29    0.7449    
   253.79    0.7029    
   257.29    0.6717    
   260.79    0.6483    
   264.29    0.6309    
   267.79    0.6183    
   271.28    0.6100    
   274.78    0.6060    
   278.28    0.6065    
   281.78    0.6121    
   285.28    0.6240    
   288.78    0.6435    
   292.28    0.6704    
   295.78    0.6986    
   299.28    0.7189    
   302.78    0.7351    
   306.28    0.7593    
   309.78    0.7983    
   313.28    0.8551    
   316.78    0.9331    
   320.28     1.038    
   323.78     1.178    
   327.28     1.368    
   330.78     1.630    
   334.28     1.998    
   337.78     2.531    
   341.28     3.321    
   344.77     4.513    
   348.27     6.285    
   351.77     8.629    
   355.27     10.72    
   358.77     10.85    
   362.27     8.888    
   365.77     6.498    
   369.27     4.644    
   372.77     3.386    
   376.27     2.549    
   379.77     1.983    
   383.27     1.588    
   386.77     1.306    
   390.27     1.098    
   393.77    0.9404    
   397.27    0.8192    
   400.77    0.7243    
   404.27    0.6489    
   407.77    0.5886    
   411.27    0.5404    
   414.76    0.5024    
   418.26    0.4737    
   421.76    0.4544    
   425.26    0.4457    
   428.76    0.4498    
   432.26    0.4670    
   435.76    0.4866    
   439.26    0.4806    
   442.76    0.4392    
   446.26    0.3881    
   449.76    0.3466    
   453.26    0.3178    
   456.76    0.2992    
   460.26    0.2880    
   463.76    0.2797    
   467.26    0.2692    
   470.76    0.2573    
   474.26    0.2486    
   477.76    0.2457    
   481.26    0.2497    
   484.76    0.2604    
   488.25    0.2714    
   491.75    0.2685    
   495.25    0.2482    
   498.75    0.2236    
   502.25    0.2035    
   505.75    0.1888    
   509.25    0.1782    
   512.75    0.1703    
   516.25    0.1643    
   519.75    0.1597    
   523.25    0.1563    
   526.75    0.1541    
   530.25    0.1531    
   533.75    0.1535    
   537.25    0.1548    
   540.75    0.1551    
   544.25    0.1525    
   547.75    0.1485    
   551.25    0.1454    
   554.75    0.1438    
   558.25    0.1439    
   561.74    0.1457    
   565.24    0.1495    
   568.74    0.1560    
   572.24    0.1664    
   575.74    0.1829    
   579.24    0.2080    
   582.74    0.2428    
   586.24    0.2777    
   589.74    0.2882    
   593.24    0.2660    
   596.74    0.2347    
   600.24    0.2121    
   603.74    0.2016    
   607.24    0.2022    
   610.74    0.2138    
   614.24    0.2386    
   617.74    0.2800    
   621.24    0.3376    
   624.74    0.3908    
   628.24    0.3973    
   631.74    0.3530    
   635.23    0.2996    
   638.73    0.2624    
   642.23    0.2438    
   645.73    0.2403    
   649.23    0.2482    
   652.73    0.2673    
   656.23    0.3028    
   659.73    0.3633    
   663.23    0.4583    
   666.73    0.5860    
   670.23    0.6986    
   673.73    0.7066    
   677.23    0.6112    
   680.73    0.5047    
   684.23    0.4341    
   687.73    0.3934    
   691.23    0.3652    
   694.73    0.3434    
   698.23    0.3193    
   701.73    0.2884    
   705.22    0.2623    
   708.72    0.2508    
   712.22    0.2568    
   715.72    0.2831    
   719.22    0.3347    
   722.72    0.4161    
   726.22    0.5122    
   729.72    0.5614    
   733.22    0.5098    
   736.72    0.4041    
   740.22    0.3087    
   743.72    0.2406    
   747.22    0.1948    
   750.72    0.1636    
   754.22    0.1419    
   757.72    0.1262    
   761.22    0.1146    
   764.72    0.1057    
   768.22    0.9873E-01
   771.72    0.9315E-01
   775.22    0.8859E-01
   778.71    0.8482E-01
   782.21    0.8164E-01
   785.71    0.7894E-01
   789.21    0.7661E-01
   792.71    0.7460E-01
   796.21    0.7283E-01
   799.71    0.7128E-01
   803.21    0.6990E-01
   806.71    0.6868E-01
   810.21    0.6759E-01
   813.71    0.6662E-01
   817.21    0.6575E-01
   820.71    0.6498E-01
   824.21    0.6429E-01
   827.71    0.6369E-01
   831.21    0.6317E-01
   834.71    0.6272E-01
   838.21    0.6235E-01
   841.71    0.6207E-01
   845.21    0.6187E-01
   848.71    0.6176E-01
   852.20    0.6176E-01
   855.70    0.6189E-01
   859.20    0.6216E-01
   862.70    0.6262E-01
   866.20    0.6331E-01
   869.70    0.6430E-01
   873.20    0.6571E-01
   876.70    0.6768E-01
   880.20    0.7048E-01
   883.70    0.7448E-01
   887.20    0.8031E-01
   890.70    0.8902E-01
   894.20    0.1022    
   897.70    0.1221    
   901.20    0.1495    
   904.70    0.1772    
   908.20    0.1851    
   911.70    0.1650    
   915.20    0.1352    
   918.70    0.1108    
   922.20    0.9395E-01
   925.69    0.8272E-01
   929.19    0.7516E-01
   932.69    0.6991E-01
   936.19    0.6617E-01
   939.69    0.6343E-01
   943.19    0.6136E-01
   946.69    0.5978E-01
   950.19    0.5854E-01
   953.69    0.5757E-01
   957.19    0.5679E-01
   960.69    0.5616E-01
   964.19    0.5566E-01
   967.69    0.5525E-01
   971.19    0.5493E-01
   974.69    0.5468E-01
   978.19    0.5448E-01
   981.69    0.5435E-01
   985.19    0.5426E-01
   988.69    0.5421E-01
   992.19    0.5421E-01
   995.69    0.5425E-01
   999.18    0.5433E-01
  1002.68    0.5445E-01
  1006.18    0.5461E-01
  1009.68    0.5481E-01
  1013.18    0.5506E-01
  1016.68    0.5536E-01
  1020.18    0.5572E-01
  1023.68    0.5613E-01
  1027.18    0.5661E-01
  1030.68    0.5717E-01
  1034.18    0.5782E-01
  1037.68    0.5857E-01
  1041.18    0.5944E-01
  1044.68    0.6046E-01
  1048.18    0.6164E-01
  1051.68    0.6305E-01
  1055.18    0.6471E-01
  1058.68    0.6670E-01
  1062.18    0.6911E-01
  1065.68    0.7206E-01
  1069.17    0.7572E-01
  1072.67    0.8032E-01
  1076.17    0.8623E-01
  1079.67    0.9396E-01
  1083.17    0.1043    
  1086.67    0.1186    
  1090.17    0.1387    
  1093.67    0.1681    
  1097.17    0.2121    
  1100.67    0.2781    
  1104.17    0.3711    
  1107.67    0.4735    
  1111.17    0.5203    
  1114.67    0.4650    
  1118.17    0.3617    
  1121.67    0.2714    
  1125.17    0.2082    
  1128.67    0.1663    
  1132.17    0.1382    
  1135.67    0.1191    
  1139.17    0.1056    
  1142.66    0.9581E-01
  1146.16    0.8858E-01
  1149.66    0.8311E-01
  1153.16    0.7890E-01
  1156.66    0.7562E-01
  1160.16    0.7303E-01
  1163.66    0.7096E-01
  1167.16    0.6930E-01
  1170.66    0.6796E-01
  1174.16    0.6688E-01
  1177.66    0.6601E-01
  1181.16    0.6530E-01
  1184.66    0.6474E-01
  1188.16    0.6429E-01
  1191.66    0.6395E-01
  1195.16    0.6369E-01
  1198.66    0.6350E-01
  1202.16    0.6338E-01
  1205.66    0.6332E-01
  1209.16    0.6331E-01
  1212.66    0.6334E-01
  1216.15    0.6341E-01
  1219.65    0.6352E-01
  1223.15    0.6367E-01
  1226.65    0.6384E-01
  1230.15    0.6405E-01
  1233.65    0.6429E-01
  1237.15    0.6455E-01
  1240.65    0.6485E-01
  1244.15    0.6517E-01
  1247.65    0.6552E-01
  1251.15    0.6591E-01
  1254.65    0.6632E-01
  1258.15    0.6678E-01
  1261.65    0.6728E-01
  1265.15    0.6783E-01
  1268.65    0.6845E-01
  1272.15    0.6917E-01
  1275.65    0.7001E-01
  1279.15    0.7104E-01
  1282.65    0.7236E-01
  1286.15    0.7413E-01
  1289.64    0.7652E-01
  1293.14    0.7954E-01
  1296.64    0.8233E-01
  1300.14    0.8308E-01
  1303.64    0.8160E-01
  1307.14    0.7966E-01
  1310.64    0.7831E-01
  1314.14    0.7761E-01
  1317.64    0.7738E-01
  1321.14    0.7746E-01
  1324.64    0.7774E-01
  1328.14    0.7817E-01
  1331.64    0.7870E-01
  1335.14    0.7930E-01
  1338.64    0.7997E-01
  1342.14    0.8070E-01
  1345.64    0.8147E-01
  1349.14    0.8229E-01
  1352.64    0.8315E-01
  1356.14    0.8405E-01
  1359.63    0.8500E-01
  1363.13    0.8600E-01
  1366.63    0.8704E-01
  1370.13    0.8814E-01
  1373.63    0.8930E-01
  1377.13    0.9051E-01
  1380.63    0.9180E-01
  1384.13    0.9316E-01
  1387.63    0.9462E-01
  1391.13    0.9618E-01
  1394.63    0.9786E-01
  1398.13    0.9968E-01
  1401.63    0.1017    
  1405.13    0.1039    
  1408.63    0.1064    
  1412.13    0.1092    
  1415.63    0.1124    
  1419.13    0.1162    
  1422.63    0.1207    
  1426.13    0.1263    
  1429.63    0.1333    
  1433.12    0.1424    
  1436.62    0.1547    
  1440.12    0.1718    
  1443.62    0.1966    
  1447.12    0.2332    
  1450.62    0.2866    
  1454.12    0.3551    
  1457.62    0.4118    
  1461.12    0.4096    
  1464.62    0.3524    
  1468.12    0.2879    
  1471.62    0.2396    
  1475.12    0.2076    
  1478.62    0.1869    
  1482.12    0.1735    
  1485.62    0.1648    
  1489.12    0.1591    
  1492.62    0.1554    
  1496.12    0.1532    
  1499.62    0.1520    
  1503.12    0.1515    
  1506.61    0.1516    
  1510.11    0.1522    
  1513.61    0.1531    
  1517.11    0.1543    
  1520.61    0.1557    
  1524.11    0.1574    
  1527.61    0.1593    
  1531.11    0.1613    
  1534.61    0.1635    
  1538.11    0.1658    
  1541.61    0.1683    
  1545.11    0.1708    
  1548.61    0.1736    
  1552.11    0.1764    
  1555.61    0.1794    
  1559.11    0.1825    
  1562.61    0.1857    
  1566.11    0.1890    
  1569.61    0.1925    
  1573.11    0.1961    
  1576.61    0.1999    
  1580.10    0.2037    
  1583.60    0.2078    
  1587.10    0.2119    
  1590.60    0.2163    
  1594.10    0.2207    
  1597.60    0.2254    
  1601.10    0.2302    
  1604.60    0.2352    
  1608.10    0.2404    
  1611.60    0.2458    
  1615.10    0.2513    
  1618.60    0.2571    
  1622.10    0.2631    
  1625.60    0.2694    
  1629.10    0.2759    
  1632.60    0.2826    
  1636.10    0.2896    
  1639.60    0.2969    
  1643.10    0.3045    
  1646.60    0.3124    
  1650.09    0.3207    
  1653.59    0.3293    
  1657.09    0.3382    
  1660.59    0.3476    
  1664.09    0.3573    
  1667.59    0.3675    
  1671.09    0.3782    
  1674.59    0.3893    
  1678.09    0.4010    
  1681.59    0.4132    
  1685.09    0.4261    
  1688.59    0.4395    
  1692.09    0.4536    
  1695.59    0.4684    
  1699.09    0.4840    
  1702.59    0.5004    
  1706.09    0.5177    
  1709.59    0.5359    
  1713.09    0.5551    
  1716.59    0.5754    
  1720.09    0.5969    
  1723.58    0.6196    
  1727.08    0.6437    
  1730.58    0.6692    
  1734.08    0.6963    
  1737.58    0.7252    
  1741.08    0.7559    
  1744.58    0.7886    
  1748.08    0.8235    
  1751.58    0.8608    
  1755.08    0.9008    
  1758.58    0.9437    
  1762.08    0.9897    
  1765.58     1.039    
  1769.08     1.093    
  1772.58     1.150    
  1776.08     1.213    
  1779.58     1.281    
  1783.08     1.354    
  1786.58     1.435    
  1790.08     1.522    
  1793.58     1.618    
  1797.07     1.724    
  1800.57     1.840    
  1804.07     1.969    
  1807.57     2.111    
  1811.07     2.270    
  1814.57     2.447    
  1818.07     2.646    
  1821.57     2.871    
  1825.07     3.125    
  1828.57     3.415    
  1832.07     3.747    
  1835.57     4.130    
  1839.07     4.575    
  1842.57     5.095    
  1846.07     5.709    
  1849.57     6.440    
  1853.07     7.319    
  1856.57     8.390    
  1860.07     9.710    
  1863.57     11.36    
  1867.07     13.47    
  1870.56     16.19    
  1874.06     19.80    
  1877.56     24.71    
  1881.06     31.55    
  1884.56     41.38    
  1888.06     55.90    
  1891.56     77.77    
  1895.06     110.1    
  1898.56     152.4    
  1902.06     188.8    
  1905.56     189.2    
  1909.06     153.4    
  1912.56     111.2    
  1916.06     78.80    
  1919.56     56.68    
  1923.06     41.92    
  1926.56     31.93    
  1930.06     24.98    
  1933.56     20.01    
  1937.06     16.36    
  1940.55     13.60    
  1944.05     11.48    
  1947.55     9.819    
  1951.05     8.494    
  1954.55     7.423    
  1958.05     6.547    
  1961.55     5.819    
  1965.05     5.205    
  1968.55     4.682    
  1972.05     4.236    
  1975.55     3.854    
  1979.05     3.524    
  1982.55     3.238    
  1986.05     2.990    
  1989.55     2.772    
  1993.05     2.581    
  1996.55     2.413    
  2000.05     2.265    
  2003.55     2.134    
  2007.05     2.020    
  2010.55     1.921    
  2014.04     1.835    
  2017.54     1.761    
  2021.04     1.695    
  2024.54     1.634    
  2028.04     1.582    
  2031.54     1.540    
  2035.04     1.510    
  2038.54     1.493    
  2042.04     1.488    
  2045.54     1.498    
  2049.04     1.525    
  2052.54     1.575    
  2056.04     1.655    
  2059.54     1.773    
  2063.04     1.946    
  2066.54     2.202    
  2070.04     2.586    
  2073.54     3.144    
  2077.04     3.852    
  2080.54     4.442    
  2084.04     4.527    
  2087.53     4.240    
  2091.03     4.030    
  2094.53     4.117    
  2098.03     4.567    
  2101.53     5.458    
  2105.03     6.956    
  2108.53     9.318    
  2112.03     12.73    
  2115.53     16.54    
  2119.03     18.36    
  2122.53     16.35    
  2126.03     12.43    
  2129.53     8.937    
  2133.03     6.470    
  2136.53     4.821    
  2140.03     3.713    
  2143.53     2.949    
  2147.03     2.405    
  2150.53     2.007    
  2154.03     1.708    
  2157.53     1.477    
  2161.02     1.295    
  2164.52     1.149    
  2168.02     1.030    
  2171.52    0.9321    
  2175.02    0.8497    
  2178.52    0.7799    
  2182.02    0.7200    
  2185.52    0.6683    
  2189.02    0.6231    
  2192.52    0.5834    
  2196.02    0.5483    
  2199.52    0.5170    
  2203.02    0.4890    
  2206.52    0.4638    
  2210.02    0.4409    
  2213.52    0.4201    
  2217.02    0.4011    
  2220.52    0.3837    
  2224.02    0.3677    
  2227.52    0.3529    
  2231.01    0.3392    
  2234.51    0.3264    
  2238.01    0.3146    
  2241.51    0.3035    
  2245.01    0.2932    
  2248.51    0.2834    
  2252.01    0.2743    
  2255.51    0.2657    
  2259.01    0.2576    
  2262.51    0.2499    
  2266.01    0.2426    
  2269.51    0.2358    
  2273.01    0.2292    
  2276.51    0.2230    
  2280.01    0.2171    
  2283.51    0.2114    
  2287.01    0.2060    
  2290.51    0.2009    
  2294.01    0.1960    
  2297.51    0.1912    
  2301.01    0.1867    
  2304.50    0.1824    
  2308.00    0.1782    
  2311.50    0.1742    
  2315.00    0.1704    
  2318.50    0.1667    
  2322.00    0.1631    
  2325.50    0.1597    
  2329.00    0.1564    
  2332.50    0.1532    
  2336.00    0.1501    
  2339.50    0.1471    
  2343.00    0.1442    
  2346.50    0.1414    
  2350.00    0.1388    
  2353.50    0.1361    
  2357.00    0.1336    
  2360.50    0.1312    
  2364.00    0.1288    
  2367.50    0.1265    
  2371.00    0.1242    
  2374.50    0.1221    
  2377.99    0.1200    
  2381.49    0.1179    
  2384.99    0.1159    
  2388.49    0.1140    
  2391.99    0.1121    
  2395.49    0.1103    
  2398.99    0.1085    
  2402.49    0.1067    
  2405.99    0.1050    
  2409.49    0.1034    
  2412.99    0.1018    
  2416.49    0.1002    
  2419.99    0.9869E-01
  2423.49    0.9720E-01
  2426.99    0.9575E-01
  2430.49    0.9433E-01
  2433.99    0.9295E-01
  2437.49    0.9159E-01
  2440.99    0.9027E-01
  2444.49    0.8898E-01
  2447.99    0.8772E-01
  2451.48    0.8649E-01
  2454.98    0.8529E-01
  2458.48    0.8411E-01
  2461.98    0.8296E-01
  2465.48    0.8184E-01
  2468.98    0.8074E-01
  2472.48    0.7966E-01
  2475.98    0.7861E-01
  2479.48    0.7757E-01
  2482.98    0.7656E-01
  2486.48    0.7558E-01
  2489.98    0.7461E-01
  2493.48    0.7366E-01
  2496.98    0.7273E-01
  2500.48    0.7182E-01
  2503.98    0.7092E-01
  2507.48    0.7005E-01
  2510.98    0.6919E-01
  2514.48    0.6835E-01
  2517.98    0.6752E-01
  2521.48    0.6672E-01
  2524.97    0.6592E-01
  2528.47    0.6514E-01
  2531.97    0.6438E-01
  2535.47    0.6363E-01
  2538.97    0.6289E-01
  2542.47    0.6217E-01
  2545.97    0.6146E-01
  2549.47    0.6076E-01
  2552.97    0.6008E-01
  2556.47    0.5941E-01
  2559.97    0.5875E-01
  2563.47    0.5810E-01
  2566.97    0.5746E-01
  2570.47    0.5684E-01
  2573.97    0.5622E-01
  2577.47    0.5562E-01
  2580.97    0.5502E-01
  2584.47    0.5444E-01
  2587.97    0.5386E-01
  2591.47    0.5330E-01
  2594.96    0.5274E-01
  2598.46    0.5220E-01
  2601.96    0.5166E-01
  2605.46    0.5113E-01
  2608.96    0.5061E-01
  2612.46    0.5010E-01
  2615.96    0.4960E-01
  2619.46    0.4910E-01
  2622.96    0.4862E-01
  2626.46    0.4814E-01
  2629.96    0.4766E-01
  2633.46    0.4720E-01
  2636.96    0.4674E-01
  2640.46    0.4629E-01
  2643.96    0.4585E-01
  2647.46    0.4541E-01
  2650.96    0.4498E-01
  2654.46    0.4455E-01
  2657.96    0.4414E-01
  2661.46    0.4372E-01
  2664.96    0.4332E-01
  2668.45    0.4292E-01
  2671.95    0.4253E-01
  2675.45    0.4214E-01
  2678.95    0.4176E-01
  2682.45    0.4138E-01
  2685.95    0.4101E-01
  2689.45    0.4064E-01
  2692.95    0.4028E-01
  2696.45    0.3993E-01
  2699.95    0.3958E-01
  2703.45    0.3923E-01
  2706.95    0.3889E-01
  2710.45    0.3855E-01
  2713.95    0.3822E-01
  2717.45    0.3789E-01
  2720.95    0.3757E-01
  2724.45    0.3725E-01
  2727.95    0.3694E-01
  2731.45    0.3663E-01
  2734.95    0.3632E-01
  2738.45    0.3602E-01
  2741.94    0.3572E-01
  2745.44    0.3543E-01
  2748.94    0.3514E-01
  2752.44    0.3486E-01
  2755.94    0.3457E-01
  2759.44    0.3429E-01
  2762.94    0.3402E-01
  2766.44    0.3375E-01
  2769.94    0.3348E-01
  2773.44    0.3322E-01
  2776.94    0.3295E-01
  2780.44    0.3270E-01
  2783.94    0.3244E-01
  2787.44    0.3219E-01
  2790.94    0.3194E-01
  2794.44    0.3170E-01
  2797.94    0.3146E-01
  2801.44    0.3122E-01
  2804.94    0.3098E-01
  2808.44    0.3075E-01
  2811.94    0.3052E-01
  2815.43    0.3029E-01
  2818.93    0.3006E-01
  2822.43    0.2984E-01
  2825.93    0.2962E-01
  2829.43    0.2941E-01
  2832.93    0.2919E-01
  2836.43    0.2898E-01
  2839.93    0.2877E-01
  2843.43    0.2857E-01
  2846.93    0.2836E-01
  2850.43    0.2816E-01
  2853.93    0.2796E-01
  2857.43    0.2776E-01
  2860.93    0.2757E-01
  2864.43    0.2738E-01
  2867.93    0.2719E-01
  2871.43    0.2700E-01
  2874.93    0.2681E-01
  2878.43    0.2663E-01
  2881.93    0.2645E-01
  2885.42    0.2627E-01
  2888.92    0.2609E-01
  2892.42    0.2592E-01
  2895.92    0.2574E-01
  2899.42    0.2557E-01
  2902.92    0.2540E-01
  2906.42    0.2523E-01
  2909.92    0.2507E-01
  2913.42    0.2490E-01
  2916.92    0.2474E-01
  2920.42    0.2458E-01
  2923.92    0.2442E-01
  2927.42    0.2427E-01
  2930.92    0.2411E-01
  2934.42    0.2396E-01
  2937.92    0.2381E-01
  2941.42    0.2366E-01
  2944.92    0.2351E-01
  2948.42    0.2337E-01
  2951.92    0.2322E-01
  2955.42    0.2308E-01
  2958.91    0.2294E-01
  2962.41    0.2280E-01
  2965.91    0.2266E-01
  2969.41    0.2252E-01
  2972.91    0.2239E-01
  2976.41    0.2225E-01
  2979.91    0.2212E-01
  2983.41    0.2199E-01
  2986.91    0.2186E-01
  2990.41    0.2173E-01
  2993.91    0.2161E-01
  2997.41    0.2148E-01
  3000.91    0.2136E-01
  3004.41    0.2124E-01
  3007.91    0.2112E-01
  3011.41    0.2100E-01
  3014.91    0.2088E-01
  3018.41    0.2077E-01
  3021.91    0.2065E-01
  3025.41    0.2054E-01
  3028.91    0.2042E-01
  3032.40    0.2031E-01
  3035.90    0.2020E-01
  3039.40    0.2010E-01
  3042.90    0.1999E-01
  3046.40    0.1988E-01
  3049.90    0.1978E-01
  3053.40    0.1968E-01
  3056.90    0.1958E-01
  3060.40    0.1948E-01
  3063.90    0.1938E-01
  3067.40    0.1928E-01
  3070.90    0.1918E-01
  3074.40    0.1909E-01
  3077.90    0.1899E-01
  3081.40    0.1890E-01
  3084.90    0.1881E-01
  3088.40    0.1872E-01
  3091.90    0.1863E-01
  3095.40    0.1855E-01
  3098.90    0.1846E-01
  3102.40    0.1838E-01
  3105.89    0.1829E-01
  3109.39    0.1821E-01
  3112.89    0.1813E-01
  3116.39    0.1805E-01
  3119.89    0.1798E-01
  3123.39    0.1790E-01
  3126.89    0.1782E-01
  3130.39    0.1775E-01
  3133.89    0.1768E-01
  3137.39    0.1761E-01
  3140.89    0.1754E-01
  3144.39    0.1748E-01
  3147.89    0.1741E-01
  3151.39    0.1735E-01
  3154.89    0.1728E-01
  3158.39    0.1722E-01
  3161.89    0.1717E-01
  3165.39    0.1711E-01
  3168.89    0.1706E-01
  3172.39    0.1700E-01
  3175.88    0.1695E-01
  3179.38    0.1690E-01
  3182.88    0.1686E-01
  3186.38    0.1681E-01
  3189.88    0.1677E-01
  3193.38    0.1673E-01
  3196.88    0.1669E-01
  3200.38    0.1666E-01
  3203.88    0.1663E-01
  3207.38    0.1660E-01
  3210.88    0.1657E-01
  3214.38    0.1655E-01
  3217.88    0.1653E-01
  3221.38    0.1652E-01
  3224.88    0.1650E-01
  3228.38    0.1650E-01
  3231.88    0.1649E-01
  3235.38    0.1649E-01
  3238.88    0.1650E-01
  3242.38    0.1651E-01
  3245.88    0.1652E-01
  3249.37    0.1654E-01
  3252.87    0.1657E-01
  3256.37    0.1660E-01
  3259.87    0.1664E-01
  3263.37    0.1669E-01
  3266.87    0.1675E-01
  3270.37    0.1682E-01
  3273.87    0.1689E-01
  3277.37    0.1698E-01
  3280.87    0.1707E-01
  3284.37    0.1718E-01
  3287.87    0.1731E-01
  3291.37    0.1745E-01
  3294.87    0.1760E-01
  3298.37    0.1778E-01
  3301.87    0.1798E-01
  3305.37    0.1819E-01
  3308.87    0.1844E-01
  3312.37    0.1871E-01
  3315.87    0.1902E-01
  3319.37    0.1936E-01
  3322.86    0.1975E-01
  3326.36    0.2018E-01
  3329.86    0.2067E-01
  3333.36    0.2122E-01
  3336.86    0.2184E-01
  3340.36    0.2255E-01
  3343.86    0.2336E-01
  3347.36    0.2428E-01
  3350.86    0.2534E-01
  3354.36    0.2656E-01
  3357.86    0.2799E-01
  3361.36    0.2965E-01
  3364.86    0.3161E-01
  3368.36    0.3394E-01
  3371.86    0.3672E-01
  3375.36    0.4009E-01
  3378.86    0.4421E-01
  3382.36    0.4931E-01
  3385.86    0.5573E-01
  3389.36    0.6393E-01
  3392.86    0.7461E-01
  3396.35    0.8882E-01
  3399.85    0.1082    
  3403.35    0.1354    
  3406.85    0.1746    
  3410.35    0.2328    
  3413.85    0.3205    
  3417.35    0.4491    
  3420.85    0.6120    
  3424.35    0.7379    
  3427.85    0.7165    
  3431.35    0.5700    
  3434.85    0.4124    
  3438.35    0.2947    
  3441.85    0.2155    
  3445.35    0.1628    
  3448.85    0.1270    
  3452.35    0.1020    
  3455.85    0.8401E-01
  3459.35    0.7071E-01
  3462.85    0.6064E-01
  3466.34    0.5284E-01
  3469.84    0.4670E-01
  3473.34    0.4177E-01
  3476.84    0.3776E-01
  3480.34    0.3445E-01
  3483.84    0.3170E-01
  3487.34    0.2937E-01
  3490.84    0.2739E-01
