
 ------------------------------------------------------------
     normal          Raman Scattering Plot
 ------------------------------------------------------------
 Excitation wavelength  514.50 nm
 Convolution lineshape is lorentzian  
 FWHM   20.00  1/cm
 ------------------------------------------------------------
 ------------------------------------------------------------
 # of frequencies :    96
 ------------------------------------------------------------
 #  freq [ 1/cm]  S [Ang**4/amu]
 ------------------------------------------------------------
   2     9.33  2251287.2832
   3    11.28  1385295.5302
   4    21.14  1976457.6136
   5    21.22  7111409.6846
   6    35.20  8184085.2550
   7    35.27 66790078.5176
   8    52.40 97857259.6270
   9    52.69 77286747.6554
  10    72.80438475273.5892
  11    73.06  4545691.5839
  12    96.01119327017.3839
  13    96.40433171700.5399
  14   120.89 40880204.8923
  15   122.20  2484532.3241
  16   122.43  4927282.3370
  17   149.87 72958453.3572
  18   150.28**************
  19   179.77 74453129.1783
  20   180.14 31954402.0422
  21   210.98  9191970.0997
  22   211.42 46588354.3820
  23   243.10207403882.5534
  24   243.54919197592.8318
  25   246.22 51072582.3786
  26   275.57  8835669.1761
  27   276.06 64043078.2329
  28   307.70 13599703.4863
  29   308.26313582487.7951
  30   336.22 36734484.4462
  31   336.74 27183704.2253
  32   368.78  3955456.2901
  33   383.76  5756323.6673
  34   384.01 79460815.6701
  35   412.36 15082980.4327
  36   412.56**************
  37   439.99  9548487.5619
  38   440.15**************
  39   466.98 53194924.4661
  40   467.10**************
  41   489.06 86317750.5686
  42   493.83489757944.7653
  43   493.93227985666.1247
  44   520.87 93344155.5681
  45   520.94**************
  46   548.23 26497453.7306
  47   548.28766529648.9555
  48   575.66788636650.3308
  49   575.71**************
  50   602.40 41589293.2485
  51   602.45985110954.9748
  52   610.40  2045985.2390
  53   627.08**************
  54   627.10 25169336.9164
  55   648.46210968651.2159
  56   648.50789476910.5502
  57   666.08**************
  58   666.12 67430480.9969
  59   682.12228780844.9995
  60   682.14 82214865.1651
  61   702.08 14537544.6491
  62   702.15486938808.1536
  63   728.75 22489575.9293
  64   730.73 82627543.8376
  65   730.80 24291675.4863
  66   767.70 10465148.5757
  67   767.77 91360771.2587
  68   811.56127403275.5290
  69   811.66 15646975.6838
  70   845.41   209242.1936
  71   958.63211070209.1935
  72  1068.86  9048204.8175
  73  1175.40 67820798.8712
  74  1277.97 55346626.8057
  75  1375.49   933287.7747
  76  1466.73  7470632.5531
  77  1550.13534186147.7870
  78  1622.76 57006790.7816
  79  1745.53267476447.4616
  80  1928.62  6044072.9331
  81  1930.48 96789498.5335
  82  1968.26708339957.6280
  83  2004.17255551691.2188
  84  2038.65577146088.1225
  85  2047.15137656078.0266
  86  2078.89163980842.3762
  87  2115.84 34111527.4892
  88  2118.04130604775.2778
  89  2146.84113307798.3934
  90  2161.07152634851.9758
  91  2171.00 66838526.3100
  92  2180.89 49679948.2938
  93  2191.98277182703.4026
  94  2194.54  6810261.3735
  95  3429.00**************
  96  3432.94753641784.7073
 ------------------------------------------------------------
   -56.44    0.2125E+07
   -52.89    0.2285E+07
   -49.33    0.2466E+07
   -45.77    0.2673E+07
   -42.22    0.2911E+07
   -38.66    0.3187E+07
   -35.10    0.3512E+07
   -31.55    0.3896E+07
   -27.99    0.4360E+07
   -24.44    0.4926E+07
   -20.88    0.5632E+07
   -17.32    0.6531E+07
   -13.77    0.7707E+07
   -10.21    0.9290E+07
    -6.65    0.1149E+08
    -3.10    0.1464E+08
     0.46    0.1916E+08
     4.02    0.2528E+08
     7.57    0.3181E+08
    11.13    0.3589E+08
    14.69    0.3710E+08
    18.24    0.3822E+08
    21.80    0.4004E+08
    25.36    0.4256E+08
    28.91    0.4753E+08
    32.47    0.5441E+08
    36.03    0.5800E+08
    39.58    0.5608E+08
    43.14    0.5432E+08
    46.69    0.5702E+08
    50.25    0.6224E+08
    53.81    0.6333E+08
    57.36    0.5888E+08
    60.92    0.5545E+08
    64.48    0.5760E+08
    68.03    0.6511E+08
    71.59    0.7186E+08
    75.15    0.6903E+08
    78.70    0.5865E+08
    82.26    0.4961E+08
    85.82    0.4592E+08
    89.37    0.4770E+08
    92.93    0.5253E+08
    96.49    0.5391E+08
   100.04    0.4718E+08
   103.60    0.3694E+08
   107.16    0.2847E+08
   110.71    0.2286E+08
   114.27    0.1954E+08
   117.82    0.1775E+08
   121.38    0.1677E+08
   124.94    0.1617E+08
   128.49    0.1623E+08
   132.05    0.1743E+08
   135.61    0.2023E+08
   139.16    0.2525E+08
   142.72    0.3305E+08
   146.28    0.4258E+08
   149.83    0.4821E+08
   153.39    0.4409E+08
   156.95    0.3421E+08
   160.50    0.2516E+08
   164.06    0.1883E+08
   167.62    0.1478E+08
   171.17    0.1232E+08
   174.73    0.1091E+08
   178.29    0.9991E+07
   181.84    0.8956E+07
   185.40    0.7715E+07
   188.95    0.6622E+07
   192.51    0.5834E+07
   196.07    0.5330E+07
   199.62    0.5061E+07
   203.18    0.5001E+07
   206.74    0.5115E+07
   210.29    0.5283E+07
   213.85    0.5356E+07
   217.41    0.5417E+07
   220.96    0.5688E+07
   224.52    0.6330E+07
   228.08    0.7500E+07
   231.63    0.9435E+07
   235.19    0.1241E+08
   238.75    0.1626E+08
   242.30    0.1921E+08
   245.86    0.1856E+08
   249.42    0.1495E+08
   252.97    0.1116E+08
   256.53    0.8378E+07
   260.08    0.6556E+07
   263.64    0.5410E+07
   267.20    0.4724E+07
   270.75    0.4350E+07
   274.31    0.4125E+07
   277.87    0.3854E+07
   281.42    0.3515E+07
   284.98    0.3243E+07
   288.54    0.3112E+07
   292.09    0.3143E+07
   295.65    0.3360E+07
   299.21    0.3805E+07
   302.76    0.4467E+07
   306.32    0.5073E+07
   309.88    0.5064E+07
   313.43    0.4406E+07
   316.99    0.3648E+07
   320.54    0.3095E+07
   324.10    0.2762E+07
   327.66    0.2601E+07
   331.21    0.2562E+07
   334.77    0.2564E+07
   338.33    0.2494E+07
   341.88    0.2346E+07
   345.44    0.2208E+07
   349.00    0.2122E+07
   352.55    0.2089E+07
   356.11    0.2098E+07
   359.67    0.2145E+07
   363.22    0.2227E+07
   366.78    0.2347E+07
   370.34    0.2509E+07
   373.89    0.2725E+07
   377.45    0.3015E+07
   381.01    0.3362E+07
   384.56    0.3682E+07
   388.12    0.3947E+07
   391.67    0.4284E+07
   395.23    0.4835E+07
   398.79    0.5712E+07
   402.34    0.7046E+07
   405.90    0.8925E+07
   409.46    0.1104E+08
   413.01    0.1226E+08
   416.57    0.1199E+08
   420.13    0.1133E+08
   423.68    0.1142E+08
   427.24    0.1268E+08
   430.80    0.1533E+08
   434.35    0.1936E+08
   437.91    0.2349E+08
   441.47    0.2478E+08
   445.02    0.2273E+08
   448.58    0.2039E+08
   452.14    0.1986E+08
   455.69    0.2176E+08
   459.25    0.2627E+08
   462.80    0.3259E+08
   466.36    0.3691E+08
   469.92    0.3468E+08
   473.47    0.2808E+08
   477.03    0.2200E+08
   480.59    0.1806E+08
   484.14    0.1608E+08
   487.70    0.1555E+08
   491.26    0.1584E+08
   494.81    0.1624E+08
   498.37    0.1662E+08
   501.93    0.1778E+08
   505.48    0.2057E+08
   509.04    0.2570E+08
   512.60    0.3391E+08
   516.15    0.4469E+08
   519.71    0.5301E+08
   523.27    0.5118E+08
   526.82    0.4110E+08
   530.38    0.3075E+08
   533.93    0.2339E+08
   537.49    0.1885E+08
   541.05    0.1636E+08
   544.60    0.1517E+08
   548.16    0.1440E+08
   551.72    0.1342E+08
   555.27    0.1254E+08
   558.83    0.1230E+08
   562.39    0.1296E+08
   565.94    0.1468E+08
   569.50    0.1749E+08
   573.06    0.2053E+08
   576.61    0.2152E+08
   580.17    0.1960E+08
   583.73    0.1693E+08
   587.28    0.1517E+08
   590.84    0.1462E+08
   594.39    0.1518E+08
   597.95    0.1664E+08
   601.51    0.1854E+08
   605.06    0.2039E+08
   608.62    0.2271E+08
   612.18    0.2674E+08
   615.73    0.3354E+08
   619.29    0.4395E+08
   622.85    0.5699E+08
   626.40    0.6625E+08
   629.96    0.6421E+08
   633.52    0.5508E+08
   637.07    0.4748E+08
   640.63    0.4454E+08
   644.19    0.4632E+08
   647.74    0.5251E+08
   651.30    0.6362E+08
   654.86    0.8202E+08
   658.41    0.1105E+09
   661.97    0.1458E+09
   665.52    0.1677E+09
   669.08    0.1541E+09
   672.64    0.1182E+09
   676.19    0.8466E+08
   679.75    0.6086E+08
   683.31    0.4499E+08
   686.86    0.3427E+08
   690.42    0.2694E+08
   693.98    0.2190E+08
   697.53    0.1841E+08
   701.09    0.1582E+08
   704.65    0.1355E+08
   708.20    0.1150E+08
   711.76    0.9804E+07
   715.32    0.8481E+07
   718.87    0.7462E+07
   722.43    0.6680E+07
   725.99    0.6072E+07
   729.54    0.5554E+07
   733.10    0.5042E+07
   736.65    0.4541E+07
   740.21    0.4101E+07
   743.77    0.3734E+07
   747.32    0.3433E+07
   750.88    0.3185E+07
   754.44    0.2984E+07
   757.99    0.2828E+07
   761.55    0.2714E+07
   765.11    0.2621E+07
   768.66    0.2498E+07
   772.22    0.2324E+07
   775.78    0.2142E+07
   779.33    0.1985E+07
   782.89    0.1858E+07
   786.45    0.1755E+07
   790.00    0.1673E+07
   793.56    0.1609E+07
   797.12    0.1567E+07
   800.67    0.1550E+07
   804.23    0.1563E+07
   807.78    0.1595E+07
   811.34    0.1590E+07
   814.90    0.1500E+07
   818.45    0.1364E+07
   822.01    0.1240E+07
   825.57    0.1142E+07
   829.12    0.1067E+07
   832.68    0.1006E+07
   836.24    0.9555E+06
   839.79    0.9120E+06
   843.35    0.8736E+06
   846.91    0.8390E+06
   850.46    0.8074E+06
   854.02    0.7784E+06
   857.58    0.7515E+06
   861.13    0.7265E+06
   864.69    0.7031E+06
   868.25    0.6812E+06
   871.80    0.6606E+06
   875.36    0.6412E+06
   878.91    0.6230E+06
   882.47    0.6058E+06
   886.03    0.5895E+06
   889.58    0.5743E+06
   893.14    0.5599E+06
   896.70    0.5464E+06
   900.25    0.5337E+06
   903.81    0.5220E+06
   907.37    0.5112E+06
   910.92    0.5014E+06
   914.48    0.4928E+06
   918.04    0.4854E+06
   921.59    0.4796E+06
   925.15    0.4758E+06
   928.71    0.4746E+06
   932.26    0.4770E+06
   935.82    0.4847E+06
   939.37    0.5004E+06
   942.93    0.5284E+06
   946.49    0.5756E+06
   950.04    0.6501E+06
   953.60    0.7494E+06
   957.16    0.8289E+06
   960.71    0.8118E+06
   964.27    0.7085E+06
   967.83    0.5971E+06
   971.38    0.5129E+06
   974.94    0.4547E+06
   978.50    0.4142E+06
   982.05    0.3851E+06
   985.61    0.3631E+06
   989.17    0.3460E+06
   992.72    0.3320E+06
   996.28    0.3203E+06
   999.84    0.3102E+06
  1003.39    0.3013E+06
  1006.95    0.2933E+06
  1010.50    0.2861E+06
  1014.06    0.2795E+06
  1017.62    0.2733E+06
  1021.17    0.2676E+06
  1024.73    0.2623E+06
  1028.29    0.2573E+06
  1031.84    0.2525E+06
  1035.40    0.2481E+06
  1038.96    0.2440E+06
  1042.51    0.2401E+06
  1046.07    0.2366E+06
  1049.63    0.2336E+06
  1053.18    0.2311E+06
  1056.74    0.2295E+06
  1060.30    0.2290E+06
  1063.85    0.2296E+06
  1067.41    0.2295E+06
  1070.97    0.2259E+06
  1074.52    0.2191E+06
  1078.08    0.2122E+06
  1081.63    0.2064E+06
  1085.19    0.2016E+06
  1088.75    0.1975E+06
  1092.30    0.1940E+06
  1095.86    0.1908E+06
  1099.42    0.1879E+06
  1102.97    0.1852E+06
  1106.53    0.1827E+06
  1110.09    0.1803E+06
  1113.64    0.1781E+06
  1117.20    0.1760E+06
  1120.76    0.1740E+06
  1124.31    0.1722E+06
  1127.87    0.1706E+06
  1131.43    0.1693E+06
  1134.98    0.1681E+06
  1138.54    0.1674E+06
  1142.10    0.1670E+06
  1145.65    0.1673E+06
  1149.21    0.1684E+06
  1152.76    0.1708E+06
  1156.32    0.1752E+06
  1159.88    0.1828E+06
  1163.43    0.1951E+06
  1166.99    0.2143E+06
  1170.55    0.2394E+06
  1174.10    0.2585E+06
  1177.66    0.2531E+06
  1181.22    0.2271E+06
  1184.77    0.1999E+06
  1188.33    0.1795E+06
  1191.89    0.1654E+06
  1195.44    0.1557E+06
  1199.00    0.1487E+06
  1202.56    0.1435E+06
  1206.11    0.1394E+06
  1209.67    0.1361E+06
  1213.22    0.1333E+06
  1216.78    0.1310E+06
  1220.34    0.1290E+06
  1223.89    0.1273E+06
  1227.45    0.1258E+06
  1231.01    0.1246E+06
  1234.56    0.1235E+06
  1238.12    0.1228E+06
  1241.68    0.1223E+06
  1245.23    0.1221E+06
  1248.79    0.1225E+06
  1252.35    0.1236E+06
  1255.90    0.1257E+06
  1259.46    0.1293E+06
  1263.02    0.1354E+06
  1266.57    0.1453E+06
  1270.13    0.1603E+06
  1273.69    0.1790E+06
  1277.24    0.1911E+06
  1280.80    0.1840E+06
  1284.35    0.1640E+06
  1287.91    0.1449E+06
  1291.47    0.1309E+06
  1295.02    0.1213E+06
  1298.58    0.1146E+06
  1302.14    0.1098E+06
  1305.69    0.1062E+06
  1309.25    0.1033E+06
  1312.81    0.1010E+06
  1316.36    0.9907E+05
  1319.92    0.9739E+05
  1323.48    0.9591E+05
  1327.03    0.9457E+05
  1330.59    0.9336E+05
  1334.15    0.9224E+05
  1337.70    0.9121E+05
  1341.26    0.9023E+05
  1344.82    0.8932E+05
  1348.37    0.8847E+05
  1351.93    0.8766E+05
  1355.48    0.8691E+05
  1359.04    0.8623E+05
  1362.60    0.8562E+05
  1366.15    0.8511E+05
  1369.71    0.8471E+05
  1373.27    0.8431E+05
  1376.82    0.8370E+05
  1380.38    0.8284E+05
  1383.94    0.8194E+05
  1387.49    0.8113E+05
  1391.05    0.8042E+05
  1394.61    0.7978E+05
  1398.16    0.7921E+05
  1401.72    0.7868E+05
  1405.28    0.7818E+05
  1408.83    0.7773E+05
  1412.39    0.7731E+05
  1415.95    0.7692E+05
  1419.50    0.7658E+05
  1423.06    0.7627E+05
  1426.61    0.7602E+05
  1430.17    0.7581E+05
  1433.73    0.7568E+05
  1437.28    0.7563E+05
  1440.84    0.7569E+05
  1444.40    0.7590E+05
  1447.95    0.7632E+05
  1451.51    0.7706E+05
  1455.07    0.7827E+05
  1458.62    0.8011E+05
  1462.18    0.8248E+05
  1465.74    0.8431E+05
  1469.29    0.8413E+05
  1472.85    0.8251E+05
  1476.41    0.8102E+05
  1479.96    0.8027E+05
  1483.52    0.8022E+05
  1487.08    0.8076E+05
  1490.63    0.8182E+05
  1494.19    0.8338E+05
  1497.74    0.8550E+05
  1501.30    0.8828E+05
  1504.86    0.9187E+05
  1508.41    0.9652E+05
  1511.97    0.1026E+06
  1515.53    0.1106E+06
  1519.08    0.1213E+06
  1522.64    0.1359E+06
  1526.20    0.1563E+06
  1529.75    0.1858E+06
  1533.31    0.2295E+06
  1536.87    0.2956E+06
  1540.42    0.3953E+06
  1543.98    0.5332E+06
  1547.54    0.6716E+06
  1551.09    0.7066E+06
  1554.65    0.6012E+06
  1558.20    0.4534E+06
  1561.76    0.3350E+06
  1565.32    0.2545E+06
  1568.87    0.2014E+06
  1572.43    0.1659E+06
  1575.99    0.1415E+06
  1579.54    0.1243E+06
  1583.10    0.1119E+06
  1586.66    0.1028E+06
  1590.21    0.9626E+05
  1593.77    0.9161E+05
  1597.33    0.8862E+05
  1600.88    0.8727E+05
  1604.44    0.8776E+05
  1608.00    0.9063E+05
  1611.55    0.9680E+05
  1615.11    0.1072E+06
  1618.67    0.1203E+06
  1622.22    0.1281E+06
  1625.78    0.1215E+06
  1629.33    0.1060E+06
  1632.89    0.9157E+05
  1636.45    0.8112E+05
  1640.00    0.7401E+05
  1643.56    0.6913E+05
  1647.12    0.6568E+05
  1650.67    0.6316E+05
  1654.23    0.6127E+05
  1657.79    0.5984E+05
  1661.34    0.5873E+05
  1664.90    0.5789E+05
  1668.46    0.5726E+05
  1672.01    0.5681E+05
  1675.57    0.5653E+05
  1679.13    0.5642E+05
  1682.68    0.5647E+05
  1686.24    0.5670E+05
  1689.80    0.5714E+05
  1693.35    0.5782E+05
  1696.91    0.5879E+05
  1700.46    0.6011E+05
  1704.02    0.6191E+05
  1707.58    0.6433E+05
  1711.13    0.6759E+05
  1714.69    0.7204E+05
  1718.25    0.7821E+05
  1721.80    0.8694E+05
  1725.36    0.9961E+05
  1728.92    0.1185E+06
  1732.47    0.1472E+06
  1736.03    0.1904E+06
  1739.59    0.2497E+06
  1743.14    0.3072E+06
  1746.70    0.3182E+06
  1750.26    0.2708E+06
  1753.81    0.2080E+06
  1757.37    0.1586E+06
  1760.93    0.1250E+06
  1764.48    0.1028E+06
  1768.04    0.8789E+05
  1771.59    0.7755E+05
  1775.15    0.7016E+05
  1778.71    0.6473E+05
  1782.26    0.6063E+05
  1785.82    0.5747E+05
  1789.38    0.5498E+05
  1792.93    0.5300E+05
  1796.49    0.5139E+05
  1800.05    0.5007E+05
  1803.60    0.4899E+05
  1807.16    0.4809E+05
  1810.72    0.4734E+05
  1814.27    0.4672E+05
  1817.83    0.4620E+05
  1821.39    0.4578E+05
  1824.94    0.4544E+05
  1828.50    0.4518E+05
  1832.06    0.4498E+05
  1835.61    0.4485E+05
  1839.17    0.4478E+05
  1842.72    0.4477E+05
  1846.28    0.4482E+05
  1849.84    0.4494E+05
  1853.39    0.4512E+05
  1856.95    0.4538E+05
  1860.51    0.4571E+05
  1864.06    0.4612E+05
  1867.62    0.4663E+05
  1871.18    0.4725E+05
  1874.73    0.4800E+05
  1878.29    0.4889E+05
  1881.85    0.4997E+05
  1885.40    0.5126E+05
  1888.96    0.5282E+05
  1892.52    0.5471E+05
  1896.07    0.5705E+05
  1899.63    0.5998E+05
  1903.18    0.6372E+05
  1906.74    0.6859E+05
  1910.30    0.7513E+05
  1913.85    0.8418E+05
  1917.41    0.9708E+05
  1920.97    0.1155E+06
  1924.52    0.1401E+06
  1928.08    0.1649E+06
  1931.64    0.1756E+06
  1935.19    0.1693E+06
  1938.75    0.1612E+06
  1942.31    0.1622E+06
  1945.86    0.1753E+06
  1949.42    0.2027E+06
  1952.98    0.2491E+06
  1956.53    0.3231E+06
  1960.09    0.4342E+06
  1963.65    0.5751E+06
  1967.20    0.6794E+06
  1970.76    0.6527E+06
  1974.31    0.5268E+06
  1977.87    0.4014E+06
  1981.43    0.3146E+06
  1984.98    0.2640E+06
  1988.54    0.2410E+06
  1992.10    0.2409E+06
  1995.65    0.2626E+06
  1999.21    0.3020E+06
  2002.77    0.3367E+06
  2006.32    0.3315E+06
  2009.88    0.2924E+06
  2013.44    0.2555E+06
  2016.99    0.2382E+06
  2020.55    0.2429E+06
  2024.11    0.2714E+06
  2027.66    0.3288E+06
  2031.22    0.4211E+06
  2034.78    0.5368E+06
  2038.33    0.6144E+06
  2041.89    0.5918E+06
  2045.44    0.5057E+06
  2049.00    0.4082E+06
  2052.56    0.3193E+06
  2056.11    0.2523E+06
  2059.67    0.2092E+06
  2063.23    0.1856E+06
  2066.78    0.1780E+06
  2070.34    0.1848E+06
  2073.90    0.2031E+06
  2077.45    0.2190E+06
  2081.01    0.2104E+06
  2084.57    0.1803E+06
  2088.12    0.1499E+06
  2091.68    0.1289E+06
  2095.24    0.1172E+06
  2098.79    0.1131E+06
  2102.35    0.1162E+06
  2105.91    0.1272E+06
  2109.46    0.1474E+06
  2113.02    0.1746E+06
  2116.57    0.1949E+06
  2120.13    0.1899E+06
  2123.69    0.1661E+06
  2127.24    0.1438E+06
  2130.80    0.1320E+06
  2134.36    0.1313E+06
  2137.91    0.1416E+06
  2141.47    0.1619E+06
  2145.03    0.1851E+06
  2148.58    0.1984E+06
  2152.14    0.2034E+06
  2155.70    0.2149E+06
  2159.25    0.2316E+06
  2162.81    0.2360E+06
  2166.37    0.2264E+06
  2169.92    0.2165E+06
  2173.48    0.2096E+06
  2177.03    0.2088E+06
  2180.59    0.2185E+06
  2184.15    0.2384E+06
  2187.70    0.2672E+06
  2191.26    0.2841E+06
  2194.82    0.2593E+06
  2198.37    0.2061E+06
  2201.93    0.1563E+06
  2205.49    0.1203E+06
  2209.04    0.9593E+05
  2212.60    0.7938E+05
  2216.16    0.6781E+05
  2219.71    0.5945E+05
  2223.27    0.5323E+05
  2226.83    0.4845E+05
  2230.38    0.4470E+05
  2233.94    0.4169E+05
  2237.50    0.3923E+05
  2241.05    0.3718E+05
  2244.61    0.3546E+05
  2248.16    0.3398E+05
  2251.72    0.3271E+05
  2255.28    0.3160E+05
  2258.83    0.3062E+05
  2262.39    0.2975E+05
  2265.95    0.2897E+05
  2269.50    0.2827E+05
  2273.06    0.2764E+05
  2276.62    0.2706E+05
  2280.17    0.2653E+05
  2283.73    0.2604E+05
  2287.29    0.2559E+05
  2290.84    0.2517E+05
  2294.40    0.2479E+05
  2297.96    0.2442E+05
  2301.51    0.2408E+05
  2305.07    0.2376E+05
  2308.63    0.2346E+05
  2312.18    0.2317E+05
  2315.74    0.2290E+05
  2319.29    0.2265E+05
  2322.85    0.2240E+05
  2326.41    0.2217E+05
  2329.96    0.2195E+05
  2333.52    0.2173E+05
  2337.08    0.2153E+05
  2340.63    0.2133E+05
  2344.19    0.2114E+05
  2347.75    0.2096E+05
  2351.30    0.2078E+05
  2354.86    0.2061E+05
  2358.42    0.2045E+05
  2361.97    0.2029E+05
  2365.53    0.2013E+05
  2369.09    0.1998E+05
  2372.64    0.1984E+05
  2376.20    0.1970E+05
  2379.76    0.1956E+05
  2383.31    0.1943E+05
  2386.87    0.1929E+05
  2390.42    0.1917E+05
  2393.98    0.1904E+05
  2397.54    0.1892E+05
  2401.09    0.1880E+05
  2404.65    0.1869E+05
  2408.21    0.1857E+05
  2411.76    0.1846E+05
  2415.32    0.1835E+05
  2418.88    0.1825E+05
  2422.43    0.1814E+05
  2425.99    0.1804E+05
  2429.55    0.1794E+05
  2433.10    0.1784E+05
  2436.66    0.1774E+05
  2440.22    0.1765E+05
  2443.77    0.1755E+05
  2447.33    0.1746E+05
  2450.89    0.1737E+05
  2454.44    0.1728E+05
  2458.00    0.1719E+05
  2461.55    0.1710E+05
  2465.11    0.1702E+05
  2468.67    0.1693E+05
  2472.22    0.1685E+05
  2475.78    0.1677E+05
  2479.34    0.1669E+05
  2482.89    0.1661E+05
  2486.45    0.1653E+05
  2490.01    0.1645E+05
  2493.56    0.1638E+05
  2497.12    0.1630E+05
  2500.68    0.1623E+05
  2504.23    0.1615E+05
  2507.79    0.1608E+05
  2511.35    0.1601E+05
  2514.90    0.1594E+05
  2518.46    0.1587E+05
  2522.01    0.1580E+05
  2525.57    0.1573E+05
  2529.13    0.1566E+05
  2532.68    0.1559E+05
  2536.24    0.1553E+05
  2539.80    0.1546E+05
  2543.35    0.1539E+05
  2546.91    0.1533E+05
  2550.47    0.1527E+05
  2554.02    0.1520E+05
  2557.58    0.1514E+05
  2561.14    0.1508E+05
  2564.69    0.1502E+05
  2568.25    0.1496E+05
  2571.81    0.1490E+05
  2575.36    0.1484E+05
  2578.92    0.1478E+05
  2582.48    0.1472E+05
  2586.03    0.1466E+05
  2589.59    0.1460E+05
  2593.14    0.1455E+05
  2596.70    0.1449E+05
  2600.26    0.1443E+05
  2603.81    0.1438E+05
  2607.37    0.1432E+05
  2610.93    0.1427E+05
  2614.48    0.1422E+05
  2618.04    0.1416E+05
  2621.60    0.1411E+05
  2625.15    0.1406E+05
  2628.71    0.1400E+05
  2632.27    0.1395E+05
  2635.82    0.1390E+05
  2639.38    0.1385E+05
  2642.94    0.1380E+05
  2646.49    0.1375E+05
  2650.05    0.1370E+05
  2653.61    0.1365E+05
  2657.16    0.1360E+05
  2660.72    0.1355E+05
  2664.27    0.1351E+05
  2667.83    0.1346E+05
  2671.39    0.1341E+05
  2674.94    0.1336E+05
  2678.50    0.1332E+05
  2682.06    0.1327E+05
  2685.61    0.1322E+05
  2689.17    0.1318E+05
  2692.73    0.1313E+05
  2696.28    0.1309E+05
  2699.84    0.1304E+05
  2703.40    0.1300E+05
  2706.95    0.1296E+05
  2710.51    0.1291E+05
  2714.07    0.1287E+05
  2717.62    0.1283E+05
  2721.18    0.1278E+05
  2724.74    0.1274E+05
  2728.29    0.1270E+05
  2731.85    0.1266E+05
  2735.40    0.1262E+05
  2738.96    0.1257E+05
  2742.52    0.1253E+05
  2746.07    0.1249E+05
  2749.63    0.1245E+05
  2753.19    0.1241E+05
  2756.74    0.1237E+05
  2760.30    0.1233E+05
  2763.86    0.1229E+05
  2767.41    0.1226E+05
  2770.97    0.1222E+05
  2774.53    0.1218E+05
  2778.08    0.1214E+05
  2781.64    0.1210E+05
  2785.20    0.1207E+05
  2788.75    0.1203E+05
  2792.31    0.1199E+05
  2795.86    0.1196E+05
  2799.42    0.1192E+05
  2802.98    0.1188E+05
  2806.53    0.1185E+05
  2810.09    0.1181E+05
  2813.65    0.1178E+05
  2817.20    0.1174E+05
  2820.76    0.1171E+05
  2824.32    0.1167E+05
  2827.87    0.1164E+05
  2831.43    0.1160E+05
  2834.99    0.1157E+05
  2838.54    0.1154E+05
  2842.10    0.1150E+05
  2845.66    0.1147E+05
  2849.21    0.1144E+05
  2852.77    0.1141E+05
  2856.33    0.1137E+05
  2859.88    0.1134E+05
  2863.44    0.1131E+05
  2866.99    0.1128E+05
  2870.55    0.1125E+05
  2874.11    0.1122E+05
  2877.66    0.1119E+05
  2881.22    0.1115E+05
  2884.78    0.1112E+05
  2888.33    0.1109E+05
  2891.89    0.1106E+05
  2895.45    0.1104E+05
  2899.00    0.1101E+05
  2902.56    0.1098E+05
  2906.12    0.1095E+05
  2909.67    0.1092E+05
  2913.23    0.1089E+05
  2916.79    0.1086E+05
  2920.34    0.1084E+05
  2923.90    0.1081E+05
  2927.46    0.1078E+05
  2931.01    0.1076E+05
  2934.57    0.1073E+05
  2938.12    0.1070E+05
  2941.68    0.1068E+05
  2945.24    0.1065E+05
  2948.79    0.1062E+05
  2952.35    0.1060E+05
  2955.91    0.1057E+05
  2959.46    0.1055E+05
  2963.02    0.1053E+05
  2966.58    0.1050E+05
  2970.13    0.1048E+05
  2973.69    0.1045E+05
  2977.25    0.1043E+05
  2980.80    0.1041E+05
  2984.36    0.1039E+05
  2987.92    0.1036E+05
  2991.47    0.1034E+05
  2995.03    0.1032E+05
  2998.59    0.1030E+05
  3002.14    0.1028E+05
  3005.70    0.1026E+05
  3009.25    0.1024E+05
  3012.81    0.1022E+05
  3016.37    0.1020E+05
  3019.92    0.1018E+05
  3023.48    0.1016E+05
  3027.04    0.1014E+05
  3030.59    0.1012E+05
  3034.15    0.1010E+05
  3037.71    0.1009E+05
  3041.26    0.1007E+05
  3044.82    0.1005E+05
  3048.38    0.1004E+05
  3051.93    0.1002E+05
  3055.49    0.1001E+05
  3059.05     9991.    
  3062.60     9977.    
  3066.16     9963.    
  3069.72     9950.    
  3073.27     9937.    
  3076.83     9925.    
  3080.38     9913.    
  3083.94     9902.    
  3087.50     9891.    
  3091.05     9881.    
  3094.61     9872.    
  3098.17     9863.    
  3101.72     9855.    
  3105.28     9848.    
  3108.84     9841.    
  3112.39     9835.    
  3115.95     9830.    
  3119.51     9825.    
  3123.06     9821.    
  3126.62     9819.    
  3130.18     9817.    
  3133.73     9816.    
  3137.29     9816.    
  3140.84     9817.    
  3144.40     9819.    
  3147.96     9822.    
  3151.51     9826.    
  3155.07     9832.    
  3158.63     9838.    
  3162.18     9846.    
  3165.74     9856.    
  3169.30     9867.    
  3172.85     9879.    
  3176.41     9893.    
  3179.97     9909.    
  3183.52     9926.    
  3187.08     9945.    
  3190.64     9967.    
  3194.19     9990.    
  3197.75    0.1002E+05
  3201.31    0.1004E+05
  3204.86    0.1007E+05
  3208.42    0.1011E+05
  3211.97    0.1014E+05
  3215.53    0.1018E+05
  3219.09    0.1022E+05
  3222.64    0.1027E+05
  3226.20    0.1032E+05
  3229.76    0.1037E+05
  3233.31    0.1043E+05
  3236.87    0.1049E+05
  3240.43    0.1056E+05
  3243.98    0.1063E+05
  3247.54    0.1071E+05
  3251.10    0.1079E+05
  3254.65    0.1088E+05
  3258.21    0.1098E+05
  3261.77    0.1108E+05
  3265.32    0.1119E+05
  3268.88    0.1131E+05
  3272.44    0.1144E+05
  3275.99    0.1159E+05
  3279.55    0.1174E+05
  3283.10    0.1191E+05
  3286.66    0.1209E+05
  3290.22    0.1228E+05
  3293.77    0.1249E+05
  3297.33    0.1273E+05
  3300.89    0.1298E+05
  3304.44    0.1326E+05
  3308.00    0.1356E+05
  3311.56    0.1389E+05
  3315.11    0.1425E+05
  3318.67    0.1465E+05
  3322.23    0.1510E+05
  3325.78    0.1559E+05
  3329.34    0.1613E+05
  3332.90    0.1674E+05
  3336.45    0.1742E+05
  3340.01    0.1818E+05
  3343.57    0.1904E+05
  3347.12    0.2001E+05
  3350.68    0.2112E+05
  3354.23    0.2238E+05
  3357.79    0.2384E+05
  3361.35    0.2552E+05
  3364.90    0.2748E+05
  3368.46    0.2978E+05
  3372.02    0.3250E+05
  3375.57    0.3576E+05
  3379.13    0.3969E+05
  3382.69    0.4449E+05
  3386.24    0.5044E+05
  3389.80    0.5793E+05
  3393.36    0.6750E+05
  3396.91    0.7998E+05
  3400.47    0.9663E+05
  3404.03    0.1194E+06
  3407.58    0.1515E+06
  3411.14    0.1981E+06
  3414.69    0.2676E+06
  3418.25    0.3726E+06
  3421.81    0.5254E+06
  3425.36    0.7116E+06
  3428.92    0.8426E+06
  3432.48    0.8140E+06
  3436.03    0.6561E+06
  3439.59    0.4778E+06
  3443.15    0.3397E+06
  3446.70    0.2459E+06
  3450.26    0.1835E+06
  3453.82    0.1415E+06
  3457.37    0.1122E+06
  3460.93    0.9131E+05
  3464.49    0.7590E+05
  3468.04    0.6427E+05
  3471.60    0.5530E+05
  3475.16    0.4825E+05
  3478.71    0.4261E+05
  3482.27    0.3803E+05
  3485.82    0.3426E+05
  3489.38    0.3113E+05
  3492.94    0.2850E+05
  3496.49    0.2626E+05
