
 ------------------------------------------------------------
     normal          Raman Scattering Plot
 ------------------------------------------------------------
 Excitation wavelength  514.50 nm
 Convolution lineshape is lorentzian  
 FWHM   20.00  1/cm
 ------------------------------------------------------------
 ------------------------------------------------------------
 # of frequencies :    42
 ------------------------------------------------------------
 #  freq [ 1/cm]  S [Ang**4/amu]
 ------------------------------------------------------------
   1    37.53       12.7130
   2    71.59        6.5338
   3    71.67        7.5587
   4   122.11       17.4859
   5   123.16        0.7958
   6   187.32       32.1035
   7   187.32        2.3889
   8   260.48        1.1541
   9   260.55        0.2401
  10   274.36       25.0970
  11   331.22        0.9271
  12   331.24        0.9704
  13   425.95        2.9542
  14   426.02        0.4170
  15   485.59        1.3817
  16   485.61        1.4559
  17   542.61        0.0800
  18   544.48        1.7383
  19   544.60        1.7383
  20   596.97        5.7211
  21   597.00        6.6145
  22   634.30        2.4348
  23   635.94        3.1331
  24   658.75       10.3096
  25   658.77       12.1458
  26   678.58        9.2615
  27   680.32       43.4060
  28   703.59       70.2826
  29   703.62       69.8797
  30   810.10       15.8600
  31  1053.42        5.2242
  32  1279.49       28.4445
  33  1474.91        0.9593
  34  1957.89     3769.5484
  35  2004.46    69712.7231
  36  2016.52        1.3867
  37  2092.52      237.4084
  38  2148.74       23.3910
  39  2161.20      167.0487
  40  2187.50     5564.1350
  41  3431.76       38.6107
  42  3439.98     4783.9899
 ------------------------------------------------------------
   -18.95    0.1943    
   -15.42    0.2182    
   -11.89    0.2470    
    -8.37    0.2820    
    -4.84    0.3252    
    -1.32    0.3793    
     2.21    0.4484    
     5.74    0.5383    
     9.26    0.6581    
    12.79    0.8221    
    16.31     1.053    
    19.84     1.388    
    23.37     1.888    
    26.89     2.639    
    30.42     3.710    
    33.94     4.930    
    37.47     5.571    
    41.00     5.022    
    44.52     3.868    
    48.05     2.861    
    51.57     2.197    
    55.10     1.824    
    58.63     1.679    
    62.15     1.729    
    65.68     1.947    
    69.20     2.199    
    72.73     2.195    
    76.25     1.844    
    79.78     1.406    
    83.31     1.059    
    86.83    0.8236    
    90.36    0.6696    
    93.88    0.5716    
    97.41    0.5137    
   100.94    0.4883    
   104.46    0.4945    
   107.99    0.5376    
   111.51    0.6284    
   115.04    0.7761    
   118.57    0.9515    
   122.09     1.036    
   125.62    0.9308    
   129.14    0.7286    
   132.67    0.5496    
   136.20    0.4235    
   139.72    0.3400    
   143.25    0.2851    
   146.77    0.2493    
   150.30    0.2267    
   153.83    0.2142    
   157.35    0.2107    
   160.88    0.2161    
   164.40    0.2320    
   167.93    0.2622    
   171.46    0.3131    
   174.98    0.3952    
   178.51    0.5214    
   182.03    0.6899    
   185.56    0.8349    
   189.09    0.8310    
   192.61    0.6784    
   196.14    0.5024    
   199.66    0.3682    
   203.19    0.2774    
   206.72    0.2169    
   210.24    0.1759    
   213.77    0.1473    
   217.29    0.1269    
   220.82    0.1121    
   224.35    0.1013    
   227.87    0.9358E-01
   231.40    0.8825E-01
   234.92    0.8508E-01
   238.45    0.8399E-01
   241.98    0.8518E-01
   245.50    0.8913E-01
   249.03    0.9676E-01
   252.55    0.1094    
   256.08    0.1288    
   259.61    0.1559    
   263.13    0.1928    
   266.66    0.2451    
   270.18    0.3096    
   273.71    0.3505    
   277.24    0.3246    
   280.76    0.2551    
   284.29    0.1887    
   287.81    0.1409    
   291.34    0.1089    
   294.87    0.8738E-01
   298.39    0.7262E-01
   301.92    0.6221E-01
   305.44    0.5475E-01
   308.97    0.4938E-01
   312.50    0.4563E-01
   316.02    0.4330E-01
   319.55    0.4240E-01
   323.07    0.4304E-01
   326.60    0.4489E-01
   330.13    0.4602E-01
   333.65    0.4369E-01
   337.18    0.3867E-01
   340.70    0.3372E-01
   344.23    0.2991E-01
   347.76    0.2714E-01
   351.28    0.2509E-01
   354.81    0.2353E-01
   358.33    0.2229E-01
   361.86    0.2129E-01
   365.38    0.2046E-01
   368.91    0.1976E-01
   372.44    0.1918E-01
   375.96    0.1868E-01
   379.49    0.1828E-01
   383.01    0.1796E-01
   386.54    0.1772E-01
   390.07    0.1758E-01
   393.59    0.1755E-01
   397.12    0.1767E-01
   400.64    0.1798E-01
   404.17    0.1856E-01
   407.70    0.1956E-01
   411.22    0.2120E-01
   414.75    0.2381E-01
   418.27    0.2772E-01
   421.80    0.3250E-01
   425.33    0.3552E-01
   428.85    0.3377E-01
   432.38    0.2893E-01
   435.90    0.2433E-01
   439.43    0.2103E-01
   442.96    0.1885E-01
   446.48    0.1744E-01
   450.01    0.1654E-01
   453.53    0.1600E-01
   457.06    0.1574E-01
   460.59    0.1574E-01
   464.11    0.1603E-01
   467.64    0.1668E-01
   471.16    0.1783E-01
   474.69    0.1973E-01
   478.22    0.2257E-01
   481.74    0.2595E-01
   485.27    0.2789E-01
   488.79    0.2645E-01
   492.32    0.2308E-01
   495.85    0.2000E-01
   499.37    0.1788E-01
   502.90    0.1653E-01
   506.42    0.1574E-01
   509.95    0.1531E-01
   513.48    0.1518E-01
   517.00    0.1529E-01
   520.53    0.1565E-01
   524.05    0.1632E-01
   527.58    0.1742E-01
   531.11    0.1912E-01
   534.63    0.2172E-01
   538.16    0.2532E-01
   541.68    0.2909E-01
   545.21    0.3051E-01
   548.74    0.2842E-01
   552.26    0.2514E-01
   555.79    0.2263E-01
   559.31    0.2122E-01
   562.84    0.2070E-01
   566.37    0.2090E-01
   569.89    0.2174E-01
   573.42    0.2328E-01
   576.94    0.2571E-01
   580.47    0.2942E-01
   584.00    0.3504E-01
   587.52    0.4342E-01
   591.05    0.5482E-01
   594.57    0.6604E-01
   598.10    0.6905E-01
   601.63    0.6159E-01
   605.15    0.5138E-01
   608.68    0.4379E-01
   612.20    0.3950E-01
   615.73    0.3787E-01
   619.26    0.3838E-01
   622.78    0.4092E-01
   626.31    0.4564E-01
   629.83    0.5248E-01
   633.36    0.5986E-01
   636.89    0.6488E-01
   640.41    0.6797E-01
   643.94    0.7331E-01
   647.46    0.8420E-01
   650.99    0.1023    
   654.51    0.1263    
   658.04    0.1471    
   661.57    0.1545    
   665.09    0.1563    
   668.62    0.1678    
   672.14    0.1966    
   675.67    0.2395    
   679.20    0.2757    
   682.72    0.2809    
   686.25    0.2691    
   689.77    0.2731    
   693.30    0.3105    
   696.83    0.3853    
   700.35    0.4754    
   703.88    0.5111    
   707.40    0.4454    
   710.93    0.3354    
   714.46    0.2414    
   717.98    0.1759    
   721.51    0.1321    
   725.03    0.1026    
   728.56    0.8218E-01
   732.09    0.6759E-01
   735.61    0.5688E-01
   739.14    0.4883E-01
   742.66    0.4264E-01
   746.19    0.3779E-01
   749.72    0.3395E-01
   753.24    0.3087E-01
   756.77    0.2839E-01
   760.29    0.2638E-01
   763.82    0.2477E-01
   767.35    0.2351E-01
   770.87    0.2255E-01
   774.40    0.2189E-01
   777.92    0.2155E-01
   781.45    0.2157E-01
   784.98    0.2204E-01
   788.50    0.2312E-01
   792.03    0.2508E-01
   795.55    0.2839E-01
   799.08    0.3374E-01
   802.61    0.4173E-01
   806.13    0.5133E-01
   809.66    0.5696E-01
   813.18    0.5284E-01
   816.71    0.4283E-01
   820.24    0.3349E-01
   823.76    0.2678E-01
   827.29    0.2226E-01
   830.81    0.1919E-01
   834.34    0.1705E-01
   837.87    0.1551E-01
   841.39    0.1436E-01
   844.92    0.1347E-01
   848.44    0.1277E-01
   851.97    0.1221E-01
   855.50    0.1175E-01
   859.02    0.1137E-01
   862.55    0.1104E-01
   866.07    0.1077E-01
   869.60    0.1053E-01
   873.13    0.1032E-01
   876.65    0.1014E-01
   880.18    0.9977E-02
   883.70    0.9835E-02
   887.23    0.9708E-02
   890.76    0.9596E-02
   894.28    0.9495E-02
   897.81    0.9405E-02
   901.33    0.9324E-02
   904.86    0.9252E-02
   908.39    0.9187E-02
   911.91    0.9129E-02
   915.44    0.9077E-02
   918.96    0.9032E-02
   922.49    0.8991E-02
   926.02    0.8956E-02
   929.54    0.8925E-02
   933.07    0.8898E-02
   936.59    0.8875E-02
   940.12    0.8857E-02
   943.65    0.8842E-02
   947.17    0.8831E-02
   950.70    0.8823E-02
   954.22    0.8819E-02
   957.75    0.8818E-02
   961.27    0.8820E-02
   964.80    0.8826E-02
   968.33    0.8835E-02
   971.85    0.8847E-02
   975.38    0.8864E-02
   978.90    0.8884E-02
   982.43    0.8909E-02
   985.96    0.8939E-02
   989.48    0.8974E-02
   993.01    0.9014E-02
   996.53    0.9062E-02
  1000.06    0.9119E-02
  1003.59    0.9186E-02
  1007.11    0.9265E-02
  1010.64    0.9361E-02
  1014.16    0.9478E-02
  1017.69    0.9624E-02
  1021.22    0.9810E-02
  1024.74    0.1005E-01
  1028.27    0.1037E-01
  1031.79    0.1082E-01
  1035.32    0.1146E-01
  1038.85    0.1240E-01
  1042.37    0.1381E-01
  1045.90    0.1584E-01
  1049.42    0.1824E-01
  1052.95    0.1972E-01
  1056.48    0.1887E-01
  1060.00    0.1662E-01
  1063.53    0.1450E-01
  1067.05    0.1301E-01
  1070.58    0.1203E-01
  1074.11    0.1139E-01
  1077.63    0.1097E-01
  1081.16    0.1069E-01
  1084.68    0.1050E-01
  1088.21    0.1038E-01
  1091.74    0.1029E-01
  1095.26    0.1024E-01
  1098.79    0.1021E-01
  1102.31    0.1020E-01
  1105.84    0.1020E-01
  1109.37    0.1021E-01
  1112.89    0.1023E-01
  1116.42    0.1026E-01
  1119.94    0.1029E-01
  1123.47    0.1033E-01
  1127.00    0.1038E-01
  1130.52    0.1042E-01
  1134.05    0.1048E-01
  1137.57    0.1053E-01
  1141.10    0.1059E-01
  1144.63    0.1066E-01
  1148.15    0.1072E-01
  1151.68    0.1079E-01
  1155.20    0.1086E-01
  1158.73    0.1094E-01
  1162.26    0.1102E-01
  1165.78    0.1110E-01
  1169.31    0.1119E-01
  1172.83    0.1128E-01
  1176.36    0.1137E-01
  1179.89    0.1147E-01
  1183.41    0.1157E-01
  1186.94    0.1168E-01
  1190.46    0.1179E-01
  1193.99    0.1192E-01
  1197.52    0.1204E-01
  1201.04    0.1218E-01
  1204.57    0.1233E-01
  1208.09    0.1249E-01
  1211.62    0.1266E-01
  1215.15    0.1285E-01
  1218.67    0.1306E-01
  1222.20    0.1329E-01
  1225.72    0.1355E-01
  1229.25    0.1385E-01
  1232.78    0.1420E-01
  1236.30    0.1461E-01
  1239.83    0.1510E-01
  1243.35    0.1571E-01
  1246.88    0.1648E-01
  1250.40    0.1747E-01
  1253.93    0.1878E-01
  1257.46    0.2060E-01
  1260.98    0.2319E-01
  1264.51    0.2699E-01
  1268.03    0.3269E-01
  1271.56    0.4097E-01
  1275.09    0.5114E-01
  1278.61    0.5822E-01
  1282.14    0.5573E-01
  1285.66    0.4638E-01
  1289.19    0.3710E-01
  1292.72    0.3041E-01
  1296.24    0.2599E-01
  1299.77    0.2309E-01
  1303.29    0.2117E-01
  1306.82    0.1986E-01
  1310.35    0.1895E-01
  1313.87    0.1832E-01
  1317.40    0.1788E-01
  1320.92    0.1756E-01
  1324.45    0.1735E-01
  1327.98    0.1721E-01
  1331.50    0.1712E-01
  1335.03    0.1708E-01
  1338.55    0.1707E-01
  1342.08    0.1709E-01
  1345.61    0.1713E-01
  1349.13    0.1719E-01
  1352.66    0.1727E-01
  1356.18    0.1736E-01
  1359.71    0.1747E-01
  1363.24    0.1758E-01
  1366.76    0.1771E-01
  1370.29    0.1784E-01
  1373.81    0.1798E-01
  1377.34    0.1813E-01
  1380.87    0.1828E-01
  1384.39    0.1844E-01
  1387.92    0.1861E-01
  1391.44    0.1878E-01
  1394.97    0.1896E-01
  1398.50    0.1915E-01
  1402.02    0.1934E-01
  1405.55    0.1954E-01
  1409.07    0.1974E-01
  1412.60    0.1995E-01
  1416.13    0.2016E-01
  1419.65    0.2038E-01
  1423.18    0.2060E-01
  1426.70    0.2083E-01
  1430.23    0.2107E-01
  1433.76    0.2132E-01
  1437.28    0.2157E-01
  1440.81    0.2183E-01
  1444.33    0.2210E-01
  1447.86    0.2239E-01
  1451.39    0.2269E-01
  1454.91    0.2302E-01
  1458.44    0.2338E-01
  1461.96    0.2379E-01
  1465.49    0.2427E-01
  1469.02    0.2483E-01
  1472.54    0.2539E-01
  1476.07    0.2574E-01
  1479.59    0.2584E-01
  1483.12    0.2588E-01
  1486.65    0.2598E-01
  1490.17    0.2616E-01
  1493.70    0.2640E-01
  1497.22    0.2668E-01
  1500.75    0.2699E-01
  1504.28    0.2731E-01
  1507.80    0.2766E-01
  1511.33    0.2802E-01
  1514.85    0.2839E-01
  1518.38    0.2878E-01
  1521.91    0.2917E-01
  1525.43    0.2958E-01
  1528.96    0.2999E-01
  1532.48    0.3042E-01
  1536.01    0.3086E-01
  1539.54    0.3131E-01
  1543.06    0.3177E-01
  1546.59    0.3224E-01
  1550.11    0.3272E-01
  1553.64    0.3322E-01
  1557.16    0.3373E-01
  1560.69    0.3425E-01
  1564.22    0.3478E-01
  1567.74    0.3532E-01
  1571.27    0.3588E-01
  1574.79    0.3646E-01
  1578.32    0.3705E-01
  1581.85    0.3765E-01
  1585.37    0.3827E-01
  1588.90    0.3891E-01
  1592.42    0.3956E-01
  1595.95    0.4023E-01
  1599.48    0.4092E-01
  1603.00    0.4162E-01
  1606.53    0.4235E-01
  1610.05    0.4309E-01
  1613.58    0.4385E-01
  1617.11    0.4464E-01
  1620.63    0.4545E-01
  1624.16    0.4628E-01
  1627.68    0.4713E-01
  1631.21    0.4801E-01
  1634.74    0.4892E-01
  1638.26    0.4985E-01
  1641.79    0.5081E-01
  1645.31    0.5179E-01
  1648.84    0.5281E-01
  1652.37    0.5386E-01
  1655.89    0.5494E-01
  1659.42    0.5605E-01
  1662.94    0.5720E-01
  1666.47    0.5839E-01
  1670.00    0.5961E-01
  1673.52    0.6087E-01
  1677.05    0.6218E-01
  1680.57    0.6352E-01
  1684.10    0.6492E-01
  1687.63    0.6636E-01
  1691.15    0.6784E-01
  1694.68    0.6939E-01
  1698.20    0.7098E-01
  1701.73    0.7263E-01
  1705.26    0.7434E-01
  1708.78    0.7611E-01
  1712.31    0.7795E-01
  1715.83    0.7986E-01
  1719.36    0.8183E-01
  1722.89    0.8389E-01
  1726.41    0.8602E-01
  1729.94    0.8824E-01
  1733.46    0.9054E-01
  1736.99    0.9294E-01
  1740.52    0.9544E-01
  1744.04    0.9803E-01
  1747.57    0.1007    
  1751.09    0.1036    
  1754.62    0.1065    
  1758.15    0.1096    
  1761.67    0.1128    
  1765.20    0.1162    
  1768.72    0.1197    
  1772.25    0.1233    
  1775.78    0.1272    
  1779.30    0.1312    
  1782.83    0.1355    
  1786.35    0.1399    
  1789.88    0.1446    
  1793.41    0.1495    
  1796.93    0.1546    
  1800.46    0.1601    
  1803.98    0.1658    
  1807.51    0.1719    
  1811.04    0.1783    
  1814.56    0.1851    
  1818.09    0.1922    
  1821.61    0.1998    
  1825.14    0.2079    
  1828.67    0.2165    
  1832.19    0.2256    
  1835.72    0.2354    
  1839.24    0.2458    
  1842.77    0.2569    
  1846.29    0.2687    
  1849.82    0.2815    
  1853.35    0.2952    
  1856.87    0.3099    
  1860.40    0.3259    
  1863.92    0.3430    
  1867.45    0.3617    
  1870.98    0.3819    
  1874.50    0.4040    
  1878.03    0.4280    
  1881.55    0.4544    
  1885.08    0.4834    
  1888.61    0.5153    
  1892.13    0.5507    
  1895.66    0.5901    
  1899.18    0.6341    
  1902.71    0.6835    
  1906.24    0.7394    
  1909.76    0.8031    
  1913.29    0.8762    
  1916.81    0.9608    
  1920.34     1.060    
  1923.87     1.178    
  1927.39     1.320    
  1930.92     1.495    
  1934.44     1.715    
  1937.97     2.001    
  1941.50     2.383    
  1945.02     2.909    
  1948.55     3.642    
  1952.07     4.603    
  1955.60     5.582    
  1959.13     6.069    
  1962.65     5.962    
  1966.18     5.803    
  1969.70     5.968    
  1973.23     6.557    
  1976.76     7.623    
  1980.28     9.285    
  1983.81     11.78    
  1987.33     15.53    
  1990.86     21.24    
  1994.39     29.86    
  1997.91     41.98    
  2001.44     54.87    
  2004.96     59.70    
  2008.49     51.50    
  2012.02     38.13    
  2015.54     26.91    
  2019.07     19.16    
  2022.59     14.02    
  2026.12     10.58    
  2029.65     8.217    
  2033.17     6.541    
  2036.70     5.319    
  2040.22     4.405    
  2043.75     3.706    
  2047.28     3.161    
  2050.80     2.729    
  2054.33     2.381    
  2057.85     2.097    
  2061.38     1.864    
  2064.91     1.671    
  2068.43     1.510    
  2071.96     1.377    
  2075.48     1.269    
  2079.01     1.183    
  2082.54     1.121    
  2086.06     1.081    
  2089.59     1.054    
  2093.11     1.008    
  2096.64    0.9288    
  2100.17    0.8401    
  2103.69    0.7643    
  2107.22    0.7048    
  2110.74    0.6584    
  2114.27    0.6218    
  2117.80    0.5929    
  2121.32    0.5704    
  2124.85    0.5537    
  2128.37    0.5426    
  2131.90    0.5374    
  2135.42    0.5389    
  2138.95    0.5482    
  2142.48    0.5673    
  2146.00    0.5979    
  2149.53    0.6410    
  2153.05    0.7008    
  2156.58    0.7831    
  2160.11    0.8844    
  2163.63    0.9980    
  2167.16     1.149    
  2170.68     1.390    
  2174.21     1.780    
  2177.74     2.387    
  2181.26     3.240    
  2184.79     4.111    
  2188.31     4.358    
  2191.84     3.712    
  2195.37     2.767    
  2198.89     1.995    
  2202.42     1.464    
  2205.94     1.111    
  2209.47    0.8725    
  2213.00    0.7066    
  2216.52    0.5875    
  2220.05    0.4994    
  2223.57    0.4324    
  2227.10    0.3802    
  2230.63    0.3387    
  2234.15    0.3050    
  2237.68    0.2773    
  2241.20    0.2541    
  2244.73    0.2344    
  2248.26    0.2176    
  2251.78    0.2030    
  2255.31    0.1902    
  2258.83    0.1790    
  2262.36    0.1690    
  2265.89    0.1600    
  2269.41    0.1520    
  2272.94    0.1447    
  2276.46    0.1381    
  2279.99    0.1320    
  2283.52    0.1264    
  2287.04    0.1213    
  2290.57    0.1166    
  2294.09    0.1122    
  2297.62    0.1081    
  2301.15    0.1042    
  2304.67    0.1007    
  2308.20    0.9731E-01
  2311.72    0.9415E-01
  2315.25    0.9117E-01
  2318.78    0.8837E-01
  2322.30    0.8571E-01
  2325.83    0.8320E-01
  2329.35    0.8081E-01
  2332.88    0.7854E-01
  2336.41    0.7638E-01
  2339.93    0.7433E-01
  2343.46    0.7237E-01
  2346.98    0.7049E-01
  2350.51    0.6870E-01
  2354.04    0.6699E-01
  2357.56    0.6535E-01
  2361.09    0.6377E-01
  2364.61    0.6226E-01
  2368.14    0.6081E-01
  2371.67    0.5942E-01
  2375.19    0.5807E-01
  2378.72    0.5678E-01
  2382.24    0.5554E-01
  2385.77    0.5433E-01
  2389.30    0.5318E-01
  2392.82    0.5206E-01
  2396.35    0.5098E-01
  2399.87    0.4994E-01
  2403.40    0.4893E-01
  2406.93    0.4795E-01
  2410.45    0.4701E-01
  2413.98    0.4609E-01
  2417.50    0.4521E-01
  2421.03    0.4435E-01
  2424.56    0.4352E-01
  2428.08    0.4271E-01
  2431.61    0.4193E-01
  2435.13    0.4117E-01
  2438.66    0.4043E-01
  2442.18    0.3971E-01
  2445.71    0.3901E-01
  2449.24    0.3833E-01
  2452.76    0.3767E-01
  2456.29    0.3703E-01
  2459.81    0.3641E-01
  2463.34    0.3580E-01
  2466.87    0.3521E-01
  2470.39    0.3463E-01
  2473.92    0.3407E-01
  2477.44    0.3353E-01
  2480.97    0.3299E-01
  2484.50    0.3247E-01
  2488.02    0.3197E-01
  2491.55    0.3147E-01
  2495.07    0.3099E-01
  2498.60    0.3052E-01
  2502.13    0.3006E-01
  2505.65    0.2961E-01
  2509.18    0.2917E-01
  2512.70    0.2875E-01
  2516.23    0.2833E-01
  2519.76    0.2792E-01
  2523.28    0.2752E-01
  2526.81    0.2713E-01
  2530.33    0.2675E-01
  2533.86    0.2637E-01
  2537.39    0.2601E-01
  2540.91    0.2565E-01
  2544.44    0.2530E-01
  2547.96    0.2496E-01
  2551.49    0.2463E-01
  2555.02    0.2430E-01
  2558.54    0.2398E-01
  2562.07    0.2366E-01
  2565.59    0.2335E-01
  2569.12    0.2305E-01
  2572.65    0.2276E-01
  2576.17    0.2247E-01
  2579.70    0.2218E-01
  2583.22    0.2191E-01
  2586.75    0.2163E-01
  2590.28    0.2137E-01
  2593.80    0.2110E-01
  2597.33    0.2085E-01
  2600.85    0.2060E-01
  2604.38    0.2035E-01
  2607.91    0.2011E-01
  2611.43    0.1987E-01
  2614.96    0.1963E-01
  2618.48    0.1941E-01
  2622.01    0.1918E-01
  2625.54    0.1896E-01
  2629.06    0.1874E-01
  2632.59    0.1853E-01
  2636.11    0.1832E-01
  2639.64    0.1812E-01
  2643.17    0.1791E-01
  2646.69    0.1772E-01
  2650.22    0.1752E-01
  2653.74    0.1733E-01
  2657.27    0.1714E-01
  2660.80    0.1696E-01
  2664.32    0.1678E-01
  2667.85    0.1660E-01
  2671.37    0.1642E-01
  2674.90    0.1625E-01
  2678.43    0.1608E-01
  2681.95    0.1592E-01
  2685.48    0.1575E-01
  2689.00    0.1559E-01
  2692.53    0.1543E-01
  2696.06    0.1528E-01
  2699.58    0.1512E-01
  2703.11    0.1497E-01
  2706.63    0.1483E-01
  2710.16    0.1468E-01
  2713.69    0.1454E-01
  2717.21    0.1440E-01
  2720.74    0.1426E-01
  2724.26    0.1412E-01
  2727.79    0.1399E-01
  2731.31    0.1385E-01
  2734.84    0.1372E-01
  2738.37    0.1360E-01
  2741.89    0.1347E-01
  2745.42    0.1335E-01
  2748.94    0.1322E-01
  2752.47    0.1310E-01
  2756.00    0.1299E-01
  2759.52    0.1287E-01
  2763.05    0.1275E-01
  2766.57    0.1264E-01
  2770.10    0.1253E-01
  2773.63    0.1242E-01
  2777.15    0.1231E-01
  2780.68    0.1221E-01
  2784.20    0.1210E-01
  2787.73    0.1200E-01
  2791.26    0.1190E-01
  2794.78    0.1180E-01
  2798.31    0.1170E-01
  2801.83    0.1160E-01
  2805.36    0.1151E-01
  2808.89    0.1141E-01
  2812.41    0.1132E-01
  2815.94    0.1123E-01
  2819.46    0.1114E-01
  2822.99    0.1105E-01
  2826.52    0.1096E-01
  2830.04    0.1088E-01
  2833.57    0.1079E-01
  2837.09    0.1071E-01
  2840.62    0.1063E-01
  2844.15    0.1055E-01
  2847.67    0.1047E-01
  2851.20    0.1039E-01
  2854.72    0.1031E-01
  2858.25    0.1024E-01
  2861.78    0.1016E-01
  2865.30    0.1009E-01
  2868.83    0.1001E-01
  2872.35    0.9943E-02
  2875.88    0.9873E-02
  2879.41    0.9803E-02
  2882.93    0.9735E-02
  2886.46    0.9668E-02
  2889.98    0.9601E-02
  2893.51    0.9536E-02
  2897.04    0.9472E-02
  2900.56    0.9409E-02
  2904.09    0.9347E-02
  2907.61    0.9286E-02
  2911.14    0.9226E-02
  2914.67    0.9166E-02
  2918.19    0.9108E-02
  2921.72    0.9051E-02
  2925.24    0.8995E-02
  2928.77    0.8939E-02
  2932.30    0.8885E-02
  2935.82    0.8831E-02
  2939.35    0.8779E-02
  2942.87    0.8727E-02
  2946.40    0.8676E-02
  2949.93    0.8626E-02
  2953.45    0.8577E-02
  2956.98    0.8529E-02
  2960.50    0.8482E-02
  2964.03    0.8436E-02
  2967.56    0.8391E-02
  2971.08    0.8346E-02
  2974.61    0.8302E-02
  2978.13    0.8260E-02
  2981.66    0.8218E-02
  2985.19    0.8177E-02
  2988.71    0.8137E-02
  2992.24    0.8098E-02
  2995.76    0.8059E-02
  2999.29    0.8022E-02
  3002.82    0.7985E-02
  3006.34    0.7950E-02
  3009.87    0.7915E-02
  3013.39    0.7881E-02
  3016.92    0.7848E-02
  3020.44    0.7816E-02
  3023.97    0.7785E-02
  3027.50    0.7755E-02
  3031.02    0.7726E-02
  3034.55    0.7698E-02
  3038.07    0.7670E-02
  3041.60    0.7644E-02
  3045.13    0.7618E-02
  3048.65    0.7594E-02
  3052.18    0.7571E-02
  3055.70    0.7548E-02
  3059.23    0.7527E-02
  3062.76    0.7506E-02
  3066.28    0.7487E-02
  3069.81    0.7469E-02
  3073.33    0.7452E-02
  3076.86    0.7436E-02
  3080.39    0.7421E-02
  3083.91    0.7407E-02
  3087.44    0.7394E-02
  3090.96    0.7383E-02
  3094.49    0.7373E-02
  3098.02    0.7364E-02
  3101.54    0.7357E-02
  3105.07    0.7351E-02
  3108.59    0.7346E-02
  3112.12    0.7342E-02
  3115.65    0.7340E-02
  3119.17    0.7340E-02
  3122.70    0.7341E-02
  3126.22    0.7344E-02
  3129.75    0.7348E-02
  3133.28    0.7354E-02
  3136.80    0.7362E-02
  3140.33    0.7372E-02
  3143.85    0.7383E-02
  3147.38    0.7397E-02
  3150.91    0.7412E-02
  3154.43    0.7430E-02
  3157.96    0.7450E-02
  3161.48    0.7472E-02
  3165.01    0.7497E-02
  3168.54    0.7524E-02
  3172.06    0.7554E-02
  3175.59    0.7586E-02
  3179.11    0.7622E-02
  3182.64    0.7660E-02
  3186.17    0.7702E-02
  3189.69    0.7746E-02
  3193.22    0.7795E-02
  3196.74    0.7847E-02
  3200.27    0.7903E-02
  3203.80    0.7963E-02
  3207.32    0.8027E-02
  3210.85    0.8096E-02
  3214.37    0.8170E-02
  3217.90    0.8249E-02
  3221.43    0.8334E-02
  3224.95    0.8424E-02
  3228.48    0.8520E-02
  3232.00    0.8623E-02
  3235.53    0.8733E-02
  3239.06    0.8851E-02
  3242.58    0.8976E-02
  3246.11    0.9110E-02
  3249.63    0.9253E-02
  3253.16    0.9406E-02
  3256.69    0.9570E-02
  3260.21    0.9744E-02
  3263.74    0.9932E-02
  3267.26    0.1013E-01
  3270.79    0.1035E-01
  3274.32    0.1058E-01
  3277.84    0.1083E-01
  3281.37    0.1109E-01
  3284.89    0.1138E-01
  3288.42    0.1169E-01
  3291.95    0.1202E-01
  3295.47    0.1238E-01
  3299.00    0.1276E-01
  3302.52    0.1318E-01
  3306.05    0.1364E-01
  3309.58    0.1413E-01
  3313.10    0.1467E-01
  3316.63    0.1525E-01
  3320.15    0.1589E-01
  3323.68    0.1659E-01
  3327.20    0.1736E-01
  3330.73    0.1821E-01
  3334.26    0.1914E-01
  3337.78    0.2018E-01
  3341.31    0.2132E-01
  3344.83    0.2260E-01
  3348.36    0.2403E-01
  3351.89    0.2563E-01
  3355.41    0.2744E-01
  3358.94    0.2949E-01
  3362.46    0.3182E-01
  3365.99    0.3448E-01
  3369.52    0.3755E-01
  3373.04    0.4111E-01
  3376.57    0.4526E-01
  3380.09    0.5014E-01
  3383.62    0.5594E-01
  3387.15    0.6289E-01
  3390.67    0.7131E-01
  3394.20    0.8164E-01
  3397.72    0.9449E-01
  3401.25    0.1107    
  3404.78    0.1316    
  3408.30    0.1591    
  3411.83    0.1960    
  3415.35    0.2469    
  3418.88    0.3192    
  3422.41    0.4249    
  3425.93    0.5830    
  3429.46    0.8199    
  3432.98     1.153    
  3436.51     1.525    
  3440.04     1.704    
  3443.56     1.509    
  3447.09     1.132    
  3450.61    0.8004    
  3454.14    0.5687    
  3457.67    0.4150    
  3461.19    0.3124    
  3464.72    0.2421    
  3468.24    0.1925    
  3471.77    0.1564    
  3475.30    0.1296    
  3478.82    0.1090    
  3482.35    0.9305E-01
  3485.87    0.8037E-01
  3489.40    0.7017E-01
  3492.93    0.6183E-01
  3496.45    0.5495E-01
  3499.98    0.4919E-01
  3503.50    0.4433E-01
