
 ------------------------------------------------------------
     normal          Raman Scattering Plot
 ------------------------------------------------------------
 Excitation wavelength  514.50 nm
 Convolution lineshape is lorentzian  
 FWHM   20.00  1/cm
 ------------------------------------------------------------
 ------------------------------------------------------------
 # of frequencies :    42
 ------------------------------------------------------------
 #  freq [ 1/cm]  S [Ang**4/amu]
 ------------------------------------------------------------
   1    59.42       10.2883
   2    96.52      185.7340
   3    96.56        4.8655
   4   147.17        6.1807
   5   149.89        9.1632
   6   212.62        5.4648
   7   212.62        2.2778
   8   265.83       16.1018
   9   284.18        0.0129
  10   284.86       78.1189
  11   354.23        2.6055
  12   354.26        1.0284
  13   445.64        2.9893
  14   445.66        0.2956
  15   504.51        6.0121
  16   504.54        1.5200
  17   526.81        0.0086
  18   561.72      135.7610
  19   562.07        1.2760
  20   611.03        4.0609
  21   611.05        4.6333
  22   640.73        4.6812
  23   645.08        9.4790
  24   663.33       22.0383
  25   663.35       23.9788
  26   687.80      444.9685
  27   690.12       55.6184
  28   717.96       57.7179
  29   717.96       55.9666
  30   787.43        8.1811
  31  1022.42     3319.1099
  32  1240.65       37.2069
  33  1427.79        9.8380
  34  1919.76     6153.8125
  35  1948.04    70383.3009
  36  1974.50       20.3718
  37  2044.02      394.6109
  38  2091.92       49.4100
  39  2106.53       83.6812
  40  2130.55     6580.9815
  41  3427.13     2620.4349
  42  3436.68      488.5012
 ------------------------------------------------------------
     2.92    0.2195    
     6.42    0.2393    
     9.92    0.2620    
    13.43    0.2885    
    16.93    0.3197    
    20.43    0.3567    
    23.93    0.4014    
    27.43    0.4563    
    30.93    0.5248    
    34.43    0.6125    
    37.93    0.7279    
    41.43    0.8842    
    44.93     1.103    
    48.43     1.414    
    51.93     1.847    
    55.43     2.365    
    58.94     2.754    
    62.44     2.788    
    65.94     2.636    
    69.44     2.590    
    72.94     2.774    
    76.44     3.239    
    79.94     4.063    
    83.44     5.398    
    86.94     7.456    
    90.44     10.31    
    93.94     13.15    
    97.44     13.88    
   100.94     11.72    
   104.45     8.635    
   107.95     6.126    
   111.45     4.404    
   114.95     3.263    
   118.45     2.499    
   121.95     1.976    
   125.45     1.612    
   128.95     1.358    
   132.45     1.185    
   135.95     1.079    
   139.45     1.034    
   142.95     1.042    
   146.45     1.059    
   149.96     1.010    
   153.46    0.8757    
   156.96    0.7183    
   160.46    0.5882    
   163.96    0.4924    
   167.46    0.4225    
   170.96    0.3706    
   174.46    0.3310    
   177.96    0.3003    
   181.46    0.2761    
   184.96    0.2574    
   188.46    0.2434    
   191.96    0.2341    
   195.46    0.2301    
   198.97    0.2325    
   202.47    0.2436    
   205.97    0.2644    
   209.47    0.2888    
   212.97    0.2960    
   216.47    0.2730    
   219.97    0.2377    
   223.47    0.2082    
   226.97    0.1884    
   230.47    0.1766    
   233.97    0.1708    
   237.47    0.1701    
   240.97    0.1743    
   244.48    0.1839    
   247.98    0.2006    
   251.48    0.2271    
   254.98    0.2677    
   258.48    0.3269    
   261.98    0.4023    
   265.48    0.4721    
   268.98    0.5183    
   272.48    0.5722    
   275.98    0.6787    
   279.48    0.8456    
   282.98    0.9987    
   286.48    0.9913    
   289.99    0.8126    
   293.49    0.6034    
   296.99    0.4420    
   300.49    0.3320    
   303.99    0.2582    
   307.49    0.2079    
   310.99    0.1725    
   314.49    0.1468    
   317.99    0.1278    
   321.49    0.1133    
   324.99    0.1022    
   328.49    0.9365E-01
   331.99    0.8714E-01
   335.50    0.8247E-01
   339.00    0.7961E-01
   342.50    0.7880E-01
   346.00    0.8035E-01
   349.50    0.8385E-01
   353.00    0.8614E-01
   356.50    0.8255E-01
   360.00    0.7408E-01
   363.50    0.6550E-01
   367.00    0.5883E-01
   370.50    0.5396E-01
   374.00    0.5035E-01
   377.50    0.4758E-01
   381.01    0.4540E-01
   384.51    0.4363E-01
   388.01    0.4216E-01
   391.51    0.4093E-01
   395.01    0.3989E-01
   398.51    0.3902E-01
   402.01    0.3830E-01
   405.51    0.3771E-01
   409.01    0.3727E-01
   412.51    0.3697E-01
   416.01    0.3684E-01
   419.51    0.3692E-01
   423.01    0.3727E-01
   426.51    0.3799E-01
   430.02    0.3928E-01
   433.52    0.4141E-01
   437.02    0.4469E-01
   440.52    0.4905E-01
   444.02    0.5275E-01
   447.52    0.5267E-01
   451.02    0.4899E-01
   454.52    0.4486E-01
   458.02    0.4189E-01
   461.52    0.4012E-01
   465.02    0.3923E-01
   468.52    0.3900E-01
   472.02    0.3929E-01
   475.53    0.4007E-01
   479.03    0.4136E-01
   482.53    0.4328E-01
   486.03    0.4607E-01
   489.53    0.5010E-01
   493.03    0.5597E-01
   496.53    0.6428E-01
   500.03    0.7453E-01
   503.53    0.8261E-01
   507.03    0.8296E-01
   510.53    0.7768E-01
   514.03    0.7290E-01
   517.53    0.7112E-01
   521.04    0.7237E-01
   524.54    0.7638E-01
   528.04    0.8318E-01
   531.54    0.9325E-01
   535.04    0.1076    
   538.54    0.1281    
   542.04    0.1579    
   545.54    0.2019    
   549.04    0.2682    
   552.54    0.3669    
   556.04    0.4991    
   559.54    0.6223    
   563.04    0.6405    
   566.55    0.5356    
   570.05    0.4006    
   573.55    0.2946    
   577.05    0.2231    
   580.55    0.1764    
   584.05    0.1459    
   587.55    0.1260    
   591.05    0.1132    
   594.55    0.1057    
   598.05    0.1027    
   601.55    0.1039    
   605.05    0.1090    
   608.55    0.1155    
   612.06    0.1180    
   615.56    0.1147    
   619.06    0.1108    
   622.56    0.1103    
   626.06    0.1142    
   629.56    0.1227    
   633.06    0.1366    
   636.56    0.1562    
   640.06    0.1800    
   643.56    0.2034    
   647.06    0.2243    
   650.56    0.2490    
   654.06    0.2881    
   657.57    0.3467    
   661.07    0.4168    
   664.57    0.4770    
   668.07    0.5293    
   671.57    0.6121    
   675.07    0.7637    
   678.57     1.014    
   682.07     1.366    
   685.57     1.713    
   689.07     1.793    
   692.57     1.528    
   696.07     1.159    
   699.57    0.8673    
   703.07    0.6827    
   706.58    0.5857    
   710.08    0.5566    
   713.58    0.5725    
   717.08    0.5819    
   720.58    0.5258    
   724.08    0.4218    
   727.58    0.3239    
   731.08    0.2514    
   734.58    0.2009    
   738.08    0.1656    
   741.58    0.1401    
   745.08    0.1214    
   748.58    0.1071    
   752.09    0.9613E-01
   755.59    0.8751E-01
   759.09    0.8072E-01
   762.59    0.7543E-01
   766.09    0.7143E-01
   769.59    0.6867E-01
   773.09    0.6725E-01
   776.59    0.6743E-01
   780.09    0.6942E-01
   783.59    0.7253E-01
   787.09    0.7370E-01
   790.59    0.6995E-01
   794.09    0.6340E-01
   797.60    0.5743E-01
   801.10    0.5301E-01
   804.60    0.4989E-01
   808.10    0.4767E-01
   811.60    0.4607E-01
   815.10    0.4489E-01
   818.60    0.4402E-01
   822.10    0.4339E-01
   825.60    0.4296E-01
   829.10    0.4268E-01
   832.60    0.4254E-01
   836.10    0.4253E-01
   839.60    0.4263E-01
   843.11    0.4284E-01
   846.61    0.4314E-01
   850.11    0.4355E-01
   853.61    0.4405E-01
   857.11    0.4466E-01
   860.61    0.4536E-01
   864.11    0.4617E-01
   867.61    0.4708E-01
   871.11    0.4810E-01
   874.61    0.4925E-01
   878.11    0.5052E-01
   881.61    0.5192E-01
   885.11    0.5348E-01
   888.62    0.5518E-01
   892.12    0.5706E-01
   895.62    0.5913E-01
   899.12    0.6141E-01
   902.62    0.6392E-01
   906.12    0.6668E-01
   909.62    0.6972E-01
   913.12    0.7309E-01
   916.62    0.7682E-01
   920.12    0.8095E-01
   923.62    0.8554E-01
   927.12    0.9067E-01
   930.62    0.9641E-01
   934.13    0.1028    
   937.63    0.1101    
   941.13    0.1183    
   944.63    0.1277    
   948.13    0.1383    
   951.63    0.1506    
   955.13    0.1648    
   958.63    0.1814    
   962.13    0.2008    
   965.63    0.2238    
   969.13    0.2513    
   972.63    0.2846    
   976.13    0.3252    
   979.63    0.3755    
   983.14    0.4387    
   986.64    0.5197    
   990.14    0.6252    
   993.64    0.7661    
   997.14    0.9589    
  1000.64     1.230    
  1004.14     1.623    
  1007.64     2.208    
  1011.14     3.089    
  1014.64     4.368    
  1018.14     5.921    
  1021.64     6.960    
  1025.14     6.518    
  1028.65     5.049    
  1032.15     3.604    
  1035.65     2.555    
  1039.15     1.853    
  1042.65     1.386    
  1046.15     1.067    
  1049.65    0.8438    
  1053.15    0.6825    
  1056.65    0.5628    
  1060.15    0.4720    
  1063.65    0.4016    
  1067.15    0.3461    
  1070.65    0.3015    
  1074.16    0.2652    
  1077.66    0.2354    
  1081.16    0.2105    
  1084.66    0.1895    
  1088.16    0.1718    
  1091.66    0.1566    
  1095.16    0.1434    
  1098.66    0.1321    
  1102.16    0.1221    
  1105.66    0.1134    
  1109.16    0.1057    
  1112.66    0.9890E-01
  1116.16    0.9282E-01
  1119.67    0.8740E-01
  1123.17    0.8253E-01
  1126.67    0.7816E-01
  1130.17    0.7420E-01
  1133.67    0.7063E-01
  1137.17    0.6739E-01
  1140.67    0.6444E-01
  1144.17    0.6176E-01
  1147.67    0.5931E-01
  1151.17    0.5707E-01
  1154.67    0.5503E-01
  1158.17    0.5316E-01
  1161.67    0.5145E-01
  1165.18    0.4989E-01
  1168.68    0.4846E-01
  1172.18    0.4717E-01
  1175.68    0.4599E-01
  1179.18    0.4493E-01
  1182.68    0.4399E-01
  1186.18    0.4317E-01
  1189.68    0.4246E-01
  1193.18    0.4188E-01
  1196.68    0.4143E-01
  1200.18    0.4115E-01
  1203.68    0.4106E-01
  1207.18    0.4121E-01
  1210.68    0.4168E-01
  1214.19    0.4259E-01
  1217.69    0.4414E-01
  1221.19    0.4664E-01
  1224.69    0.5062E-01
  1228.19    0.5689E-01
  1231.69    0.6645E-01
  1235.19    0.7926E-01
  1238.69    0.9069E-01
  1242.19    0.9118E-01
  1245.69    0.7986E-01
  1249.19    0.6613E-01
  1252.69    0.5544E-01
  1256.19    0.4812E-01
  1259.70    0.4319E-01
  1263.20    0.3981E-01
  1266.70    0.3741E-01
  1270.20    0.3565E-01
  1273.70    0.3433E-01
  1277.20    0.3331E-01
  1280.70    0.3250E-01
  1284.20    0.3185E-01
  1287.70    0.3133E-01
  1291.20    0.3089E-01
  1294.70    0.3053E-01
  1298.20    0.3023E-01
  1301.70    0.2998E-01
  1305.21    0.2978E-01
  1308.71    0.2961E-01
  1312.21    0.2946E-01
  1315.71    0.2935E-01
  1319.21    0.2926E-01
  1322.71    0.2920E-01
  1326.21    0.2915E-01
  1329.71    0.2912E-01
  1333.21    0.2911E-01
  1336.71    0.2912E-01
  1340.21    0.2914E-01
  1343.71    0.2918E-01
  1347.21    0.2923E-01
  1350.72    0.2929E-01
  1354.22    0.2937E-01
  1357.72    0.2947E-01
  1361.22    0.2958E-01
  1364.72    0.2970E-01
  1368.22    0.2984E-01
  1371.72    0.3000E-01
  1375.22    0.3018E-01
  1378.72    0.3038E-01
  1382.22    0.3060E-01
  1385.72    0.3085E-01
  1389.22    0.3114E-01
  1392.72    0.3148E-01
  1396.23    0.3187E-01
  1399.73    0.3235E-01
  1403.23    0.3294E-01
  1406.73    0.3371E-01
  1410.23    0.3475E-01
  1413.73    0.3620E-01
  1417.23    0.3828E-01
  1420.73    0.4114E-01
  1424.23    0.4437E-01
  1427.73    0.4614E-01
  1431.23    0.4499E-01
  1434.73    0.4231E-01
  1438.23    0.3995E-01
  1441.74    0.3838E-01
  1445.24    0.3745E-01
  1448.74    0.3694E-01
  1452.24    0.3670E-01
  1455.74    0.3664E-01
  1459.24    0.3670E-01
  1462.74    0.3684E-01
  1466.24    0.3705E-01
  1469.74    0.3731E-01
  1473.24    0.3760E-01
  1476.74    0.3793E-01
  1480.24    0.3829E-01
  1483.74    0.3866E-01
  1487.24    0.3906E-01
  1490.75    0.3948E-01
  1494.25    0.3992E-01
  1497.75    0.4038E-01
  1501.25    0.4086E-01
  1504.75    0.4135E-01
  1508.25    0.4186E-01
  1511.75    0.4239E-01
  1515.25    0.4293E-01
  1518.75    0.4350E-01
  1522.25    0.4408E-01
  1525.75    0.4468E-01
  1529.25    0.4529E-01
  1532.75    0.4593E-01
  1536.26    0.4659E-01
  1539.76    0.4726E-01
  1543.26    0.4796E-01
  1546.76    0.4868E-01
  1550.26    0.4941E-01
  1553.76    0.5018E-01
  1557.26    0.5096E-01
  1560.76    0.5177E-01
  1564.26    0.5260E-01
  1567.76    0.5346E-01
  1571.26    0.5434E-01
  1574.76    0.5525E-01
  1578.26    0.5619E-01
  1581.77    0.5715E-01
  1585.27    0.5815E-01
  1588.77    0.5918E-01
  1592.27    0.6024E-01
  1595.77    0.6134E-01
  1599.27    0.6246E-01
  1602.77    0.6363E-01
  1606.27    0.6483E-01
  1609.77    0.6607E-01
  1613.27    0.6736E-01
  1616.77    0.6868E-01
  1620.27    0.7005E-01
  1623.77    0.7147E-01
  1627.28    0.7293E-01
  1630.78    0.7445E-01
  1634.28    0.7602E-01
  1637.78    0.7764E-01
  1641.28    0.7932E-01
  1644.78    0.8106E-01
  1648.28    0.8286E-01
  1651.78    0.8473E-01
  1655.28    0.8667E-01
  1658.78    0.8868E-01
  1662.28    0.9076E-01
  1665.78    0.9293E-01
  1669.28    0.9517E-01
  1672.79    0.9751E-01
  1676.29    0.9994E-01
  1679.79    0.1025    
  1683.29    0.1051    
  1686.79    0.1078    
  1690.29    0.1107    
  1693.79    0.1137    
  1697.29    0.1168    
  1700.79    0.1200    
  1704.29    0.1234    
  1707.79    0.1269    
  1711.29    0.1306    
  1714.79    0.1344    
  1718.30    0.1385    
  1721.80    0.1427    
  1725.30    0.1471    
  1728.80    0.1518    
  1732.30    0.1567    
  1735.80    0.1618    
  1739.30    0.1672    
  1742.80    0.1729    
  1746.30    0.1788    
  1749.80    0.1851    
  1753.30    0.1918    
  1756.80    0.1988    
  1760.30    0.2062    
  1763.80    0.2141    
  1767.31    0.2224    
  1770.81    0.2313    
  1774.31    0.2406    
  1777.81    0.2506    
  1781.31    0.2613    
  1784.81    0.2726    
  1788.31    0.2847    
  1791.81    0.2976    
  1795.31    0.3115    
  1798.81    0.3264    
  1802.31    0.3424    
  1805.81    0.3596    
  1809.31    0.3781    
  1812.82    0.3982    
  1816.32    0.4199    
  1819.82    0.4435    
  1823.32    0.4692    
  1826.82    0.4972    
  1830.32    0.5279    
  1833.82    0.5615    
  1837.32    0.5985    
  1840.82    0.6394    
  1844.32    0.6847    
  1847.82    0.7350    
  1851.32    0.7913    
  1854.82    0.8545    
  1858.33    0.9257    
  1861.83     1.006    
  1865.33     1.099    
  1868.83     1.204    
  1872.33     1.327    
  1875.83     1.469    
  1879.33     1.638    
  1882.83     1.838    
  1886.33     2.080    
  1889.83     2.376    
  1893.33     2.746    
  1896.83     3.217    
  1900.33     3.832    
  1903.84     4.658    
  1907.34     5.794    
  1910.84     7.369    
  1914.34     9.431    
  1917.84     11.63    
  1921.34     13.22    
  1924.84     14.32    
  1928.34     16.12    
  1931.84     19.63    
  1935.34     25.70    
  1938.84     35.25    
  1942.34     48.36    
  1945.84     60.66    
  1949.35     62.36    
  1952.85     51.53    
  1956.35     37.59    
  1959.85     26.60    
  1963.35     19.10    
  1966.85     14.12    
  1970.35     10.76    
  1973.85     8.432    
  1977.35     6.762    
  1980.85     5.531    
  1984.35     4.604    
  1987.85     3.890    
  1991.35     3.331    
  1994.86     2.886    
  1998.36     2.526    
  2001.86     2.232    
  2005.36     1.989    
  2008.86     1.787    
  2012.36     1.618    
  2015.86     1.476    
  2019.36     1.359    
  2022.86     1.263    
  2026.36     1.187    
  2029.86     1.134    
  2033.36     1.106    
  2036.86     1.106    
  2040.36     1.124    
  2043.87     1.114    
  2047.37     1.039    
  2050.87    0.9304    
  2054.37    0.8340    
  2057.87    0.7614    
  2061.37    0.7090    
  2064.87    0.6714    
  2068.37    0.6452    
  2071.87    0.6285    
  2075.37    0.6205    
  2078.87    0.6216    
  2082.37    0.6329    
  2085.87    0.6557    
  2089.38    0.6900    
  2092.88    0.7328    
  2096.38    0.7872    
  2099.88    0.8653    
  2103.38    0.9783    
  2106.88     1.132    
  2110.38     1.344    
  2113.88     1.663    
  2117.38     2.159    
  2120.88     2.918    
  2124.38     3.971    
  2127.88     5.035    
  2131.38     5.330    
  2134.89     4.541    
  2138.39     3.388    
  2141.89     2.443    
  2145.39     1.790    
  2148.89     1.355    
  2152.39     1.061    
  2155.89    0.8564    
  2159.39    0.7095    
  2162.89    0.6009    
  2166.39    0.5185    
  2169.89    0.4543    
  2173.39    0.4034    
  2176.89    0.3622    
  2180.40    0.3283    
  2183.90    0.3000    
  2187.40    0.2760    
  2190.90    0.2556    
  2194.40    0.2379    
  2197.90    0.2225    
  2201.40    0.2089    
  2204.90    0.1968    
  2208.40    0.1861    
  2211.90    0.1765    
  2215.40    0.1678    
  2218.90    0.1599    
  2222.40    0.1526    
  2225.91    0.1460    
  2229.41    0.1400    
  2232.91    0.1343    
  2236.41    0.1291    
  2239.91    0.1243    
  2243.41    0.1198    
  2246.91    0.1156    
  2250.41    0.1117    
  2253.91    0.1080    
  2257.41    0.1045    
  2260.91    0.1012    
  2264.41    0.9812E-01
  2267.91    0.9519E-01
  2271.41    0.9242E-01
  2274.92    0.8978E-01
  2278.42    0.8728E-01
  2281.92    0.8489E-01
  2285.42    0.8262E-01
  2288.92    0.8045E-01
  2292.42    0.7838E-01
  2295.92    0.7640E-01
  2299.42    0.7451E-01
  2302.92    0.7269E-01
  2306.42    0.7095E-01
  2309.92    0.6928E-01
  2313.42    0.6768E-01
  2316.92    0.6613E-01
  2320.43    0.6465E-01
  2323.93    0.6322E-01
  2327.43    0.6184E-01
  2330.93    0.6051E-01
  2334.43    0.5923E-01
  2337.93    0.5799E-01
  2341.43    0.5680E-01
  2344.93    0.5565E-01
  2348.43    0.5453E-01
  2351.93    0.5345E-01
  2355.43    0.5241E-01
  2358.93    0.5139E-01
  2362.43    0.5041E-01
  2365.94    0.4946E-01
  2369.44    0.4854E-01
  2372.94    0.4765E-01
  2376.44    0.4678E-01
  2379.94    0.4594E-01
  2383.44    0.4512E-01
  2386.94    0.4433E-01
  2390.44    0.4355E-01
  2393.94    0.4280E-01
  2397.44    0.4207E-01
  2400.94    0.4136E-01
  2404.44    0.4067E-01
  2407.94    0.4000E-01
  2411.45    0.3934E-01
  2414.95    0.3871E-01
  2418.45    0.3808E-01
  2421.95    0.3748E-01
  2425.45    0.3689E-01
  2428.95    0.3631E-01
  2432.45    0.3575E-01
  2435.95    0.3520E-01
  2439.45    0.3467E-01
  2442.95    0.3414E-01
  2446.45    0.3363E-01
  2449.95    0.3314E-01
  2453.45    0.3265E-01
  2456.96    0.3218E-01
  2460.46    0.3171E-01
  2463.96    0.3126E-01
  2467.46    0.3081E-01
  2470.96    0.3038E-01
  2474.46    0.2996E-01
  2477.96    0.2954E-01
  2481.46    0.2914E-01
  2484.96    0.2874E-01
  2488.46    0.2835E-01
  2491.96    0.2797E-01
  2495.46    0.2760E-01
  2498.96    0.2723E-01
  2502.47    0.2688E-01
  2505.97    0.2653E-01
  2509.47    0.2619E-01
  2512.97    0.2585E-01
  2516.47    0.2552E-01
  2519.97    0.2520E-01
  2523.47    0.2488E-01
  2526.97    0.2457E-01
  2530.47    0.2427E-01
  2533.97    0.2397E-01
  2537.47    0.2368E-01
  2540.97    0.2339E-01
  2544.47    0.2311E-01
  2547.97    0.2284E-01
  2551.48    0.2257E-01
  2554.98    0.2230E-01
  2558.48    0.2204E-01
  2561.98    0.2179E-01
  2565.48    0.2153E-01
  2568.98    0.2129E-01
  2572.48    0.2105E-01
  2575.98    0.2081E-01
  2579.48    0.2057E-01
  2582.98    0.2035E-01
  2586.48    0.2012E-01
  2589.98    0.1990E-01
  2593.48    0.1968E-01
  2596.99    0.1947E-01
  2600.49    0.1926E-01
  2603.99    0.1905E-01
  2607.49    0.1885E-01
  2610.99    0.1865E-01
  2614.49    0.1845E-01
  2617.99    0.1826E-01
  2621.49    0.1807E-01
  2624.99    0.1788E-01
  2628.49    0.1770E-01
  2631.99    0.1752E-01
  2635.49    0.1734E-01
  2638.99    0.1716E-01
  2642.50    0.1699E-01
  2646.00    0.1682E-01
  2649.50    0.1666E-01
  2653.00    0.1649E-01
  2656.50    0.1633E-01
  2660.00    0.1617E-01
  2663.50    0.1602E-01
  2667.00    0.1586E-01
  2670.50    0.1571E-01
  2674.00    0.1556E-01
  2677.50    0.1541E-01
  2681.00    0.1527E-01
  2684.50    0.1513E-01
  2688.01    0.1499E-01
  2691.51    0.1485E-01
  2695.01    0.1471E-01
  2698.51    0.1458E-01
  2702.01    0.1444E-01
  2705.51    0.1431E-01
  2709.01    0.1419E-01
  2712.51    0.1406E-01
  2716.01    0.1393E-01
  2719.51    0.1381E-01
  2723.01    0.1369E-01
  2726.51    0.1357E-01
  2730.01    0.1345E-01
  2733.52    0.1334E-01
  2737.02    0.1322E-01
  2740.52    0.1311E-01
  2744.02    0.1300E-01
  2747.52    0.1289E-01
  2751.02    0.1278E-01
  2754.52    0.1268E-01
  2758.02    0.1257E-01
  2761.52    0.1247E-01
  2765.02    0.1237E-01
  2768.52    0.1227E-01
  2772.02    0.1217E-01
  2775.52    0.1207E-01
  2779.03    0.1197E-01
  2782.53    0.1188E-01
  2786.03    0.1178E-01
  2789.53    0.1169E-01
  2793.03    0.1160E-01
  2796.53    0.1151E-01
  2800.03    0.1142E-01
  2803.53    0.1133E-01
  2807.03    0.1125E-01
  2810.53    0.1116E-01
  2814.03    0.1108E-01
  2817.53    0.1099E-01
  2821.03    0.1091E-01
  2824.53    0.1083E-01
  2828.04    0.1075E-01
  2831.54    0.1067E-01
  2835.04    0.1059E-01
  2838.54    0.1052E-01
  2842.04    0.1044E-01
  2845.54    0.1037E-01
  2849.04    0.1029E-01
  2852.54    0.1022E-01
  2856.04    0.1015E-01
  2859.54    0.1008E-01
  2863.04    0.1001E-01
  2866.54    0.9942E-02
  2870.04    0.9874E-02
  2873.55    0.9807E-02
  2877.05    0.9741E-02
  2880.55    0.9676E-02
  2884.05    0.9612E-02
  2887.55    0.9549E-02
  2891.05    0.9486E-02
  2894.55    0.9425E-02
  2898.05    0.9364E-02
  2901.55    0.9304E-02
  2905.05    0.9245E-02
  2908.55    0.9187E-02
  2912.05    0.9129E-02
  2915.55    0.9073E-02
  2919.06    0.9017E-02
  2922.56    0.8962E-02
  2926.06    0.8908E-02
  2929.56    0.8854E-02
  2933.06    0.8802E-02
  2936.56    0.8750E-02
  2940.06    0.8698E-02
  2943.56    0.8648E-02
  2947.06    0.8598E-02
  2950.56    0.8549E-02
  2954.06    0.8501E-02
  2957.56    0.8454E-02
  2961.06    0.8407E-02
  2964.57    0.8361E-02
  2968.07    0.8316E-02
  2971.57    0.8272E-02
  2975.07    0.8228E-02
  2978.57    0.8185E-02
  2982.07    0.8143E-02
  2985.57    0.8101E-02
  2989.07    0.8060E-02
  2992.57    0.8020E-02
  2996.07    0.7981E-02
  2999.57    0.7942E-02
  3003.07    0.7904E-02
  3006.57    0.7867E-02
  3010.08    0.7830E-02
  3013.58    0.7794E-02
  3017.08    0.7759E-02
  3020.58    0.7725E-02
  3024.08    0.7691E-02
  3027.58    0.7659E-02
  3031.08    0.7627E-02
  3034.58    0.7595E-02
  3038.08    0.7565E-02
  3041.58    0.7535E-02
  3045.08    0.7506E-02
  3048.58    0.7478E-02
  3052.08    0.7450E-02
  3055.58    0.7424E-02
  3059.09    0.7398E-02
  3062.59    0.7373E-02
  3066.09    0.7349E-02
  3069.59    0.7325E-02
  3073.09    0.7303E-02
  3076.59    0.7281E-02
  3080.09    0.7261E-02
  3083.59    0.7241E-02
  3087.09    0.7222E-02
  3090.59    0.7204E-02
  3094.09    0.7187E-02
  3097.59    0.7171E-02
  3101.09    0.7156E-02
  3104.60    0.7142E-02
  3108.10    0.7129E-02
  3111.60    0.7118E-02
  3115.10    0.7107E-02
  3118.60    0.7098E-02
  3122.10    0.7089E-02
  3125.60    0.7082E-02
  3129.10    0.7077E-02
  3132.60    0.7072E-02
  3136.10    0.7069E-02
  3139.60    0.7067E-02
  3143.10    0.7067E-02
  3146.60    0.7068E-02
  3150.11    0.7071E-02
  3153.61    0.7076E-02
  3157.11    0.7082E-02
  3160.61    0.7090E-02
  3164.11    0.7099E-02
  3167.61    0.7111E-02
  3171.11    0.7125E-02
  3174.61    0.7141E-02
  3178.11    0.7159E-02
  3181.61    0.7179E-02
  3185.11    0.7202E-02
  3188.61    0.7227E-02
  3192.11    0.7255E-02
  3195.62    0.7286E-02
  3199.12    0.7320E-02
  3202.62    0.7357E-02
  3206.12    0.7397E-02
  3209.62    0.7441E-02
  3213.12    0.7489E-02
  3216.62    0.7540E-02
  3220.12    0.7596E-02
  3223.62    0.7657E-02
  3227.12    0.7722E-02
  3230.62    0.7792E-02
  3234.12    0.7868E-02
  3237.62    0.7950E-02
  3241.13    0.8038E-02
  3244.63    0.8132E-02
  3248.13    0.8234E-02
  3251.63    0.8344E-02
  3255.13    0.8462E-02
  3258.63    0.8590E-02
  3262.13    0.8727E-02
  3265.63    0.8875E-02
  3269.13    0.9034E-02
  3272.63    0.9207E-02
  3276.13    0.9393E-02
  3279.63    0.9594E-02
  3283.13    0.9812E-02
  3286.64    0.1005E-01
  3290.14    0.1030E-01
  3293.64    0.1058E-01
  3297.14    0.1088E-01
  3300.64    0.1121E-01
  3304.14    0.1157E-01
  3307.64    0.1197E-01
  3311.14    0.1240E-01
  3314.64    0.1287E-01
  3318.14    0.1339E-01
  3321.64    0.1396E-01
  3325.14    0.1460E-01
  3328.64    0.1531E-01
  3332.14    0.1609E-01
  3335.65    0.1697E-01
  3339.15    0.1795E-01
  3342.65    0.1906E-01
  3346.15    0.2031E-01
  3349.65    0.2173E-01
  3353.15    0.2336E-01
  3356.65    0.2523E-01
  3360.15    0.2738E-01
  3363.65    0.2989E-01
  3367.15    0.3284E-01
  3370.65    0.3632E-01
  3374.15    0.4048E-01
  3377.65    0.4549E-01
  3381.16    0.5161E-01
  3384.66    0.5918E-01
  3388.16    0.6868E-01
  3391.66    0.8081E-01
  3395.16    0.9660E-01
  3398.66    0.1176    
  3402.16    0.1463    
  3405.66    0.1866    
  3409.16    0.2448    
  3412.66    0.3312    
  3416.16    0.4608    
  3419.66    0.6475    
  3423.16    0.8716    
  3426.67     1.022    
  3430.17    0.9800    
  3433.67    0.8165    
  3437.17    0.6414    
  3440.67    0.4826    
  3444.17    0.3538    
  3447.67    0.2610    
  3451.17    0.1972    
  3454.67    0.1532    
  3458.17    0.1222    
  3461.67    0.9968E-01
  3465.17    0.8290E-01
  3468.67    0.7010E-01
  3472.18    0.6013E-01
  3475.68    0.5222E-01
  3479.18    0.4584E-01
  3482.68    0.4063E-01
  3486.18    0.3631E-01
  3489.68    0.3270E-01
  3493.18    0.2964E-01
  3496.68    0.2703E-01
  3500.18    0.2479E-01
