
 ------------------------------------------------------------
     normal          Raman Scattering Plot
 ------------------------------------------------------------
 Excitation wavelength  514.50 nm
 Convolution lineshape is lorentzian  
 FWHM   20.00  1/cm
 ------------------------------------------------------------
 ------------------------------------------------------------
 # of frequencies :    42
 ------------------------------------------------------------
 #  freq [ 1/cm]  S [Ang**4/amu]
 ------------------------------------------------------------
   1    20.66        4.1256
   2    56.89        9.4433
   3    56.99       20.7511
   4   109.22        0.9471
   5   109.30        0.0731
   6   174.88        2.0188
   7   174.89        3.8754
   8   248.82       10.3021
   9   248.86        3.1543
  10   277.85       82.1894
  11   320.23        0.9088
  12   320.25        1.3600
  13   416.71        0.6881
  14   416.74        0.3450
  15   476.71        2.0360
  16   476.73        1.4223
  17   536.26        0.5815
  18   536.30        6.0930
  19   548.68       37.2248
  20   589.98        5.9673
  21   590.00       29.8075
  22   630.16        1.2752
  23   630.34        0.4086
  24   656.97        4.2156
  25   656.98       15.0988
  26   675.38        0.2312
  27   675.62        0.0089
  28   697.12       93.9929
  29   697.13       80.8304
  30   819.80      260.7108
  31  1066.45       10.4287
  32  1296.59      803.1342
  33  1495.62        2.3905
  34  1974.60     1338.8645
  35  2030.17    67529.3656
  36  2034.71      108.5954
  37  2113.63      335.1990
  38  2173.52       83.6083
  39  2185.43      171.3464
  40  2212.11     5239.4862
  41  3432.38       41.4650
  42  3441.13       93.4537
 ------------------------------------------------------------
   -35.80    0.2407    
   -32.26    0.2688    
   -28.71    0.3025    
   -25.17    0.3432    
   -21.62    0.3930    
   -18.08    0.4550    
   -14.54    0.5336    
   -10.99    0.6353    
    -7.45    0.7698    
    -3.90    0.9527    
    -0.36     1.209    
     3.18     1.579    
     6.73     2.129    
    10.27     2.951    
    13.82     4.112    
    17.36     5.399    
    20.90     6.010    
    24.45     5.398    
    27.99     4.261    
    31.54     3.346    
    35.08     2.826    
    38.62     2.662    
    42.17     2.824    
    45.71     3.342    
    49.26     4.265    
    52.80     5.457    
    56.34     6.206    
    59.89     5.704    
    63.43     4.396    
    66.98     3.160    
    70.52     2.274    
    74.06     1.681    
    77.61     1.284    
    81.15     1.011    
    84.70    0.8178    
    88.24    0.6777    
    91.78    0.5741    
    95.33    0.4971    
    98.87    0.4406    
   102.42    0.4007    
   105.96    0.3718    
   109.50    0.3429    
   113.05    0.3067    
   116.59    0.2693    
   120.14    0.2377    
   123.68    0.2126    
   127.22    0.1928    
   130.77    0.1770    
   134.31    0.1642    
   137.86    0.1539    
   141.40    0.1457    
   144.94    0.1397    
   148.49    0.1357    
   152.03    0.1343    
   155.58    0.1360    
   159.12    0.1422    
   162.66    0.1548    
   166.21    0.1765    
   169.75    0.2065    
   173.30    0.2313    
   176.84    0.2267    
   180.38    0.1948    
   183.93    0.1599    
   187.47    0.1337    
   191.02    0.1161    
   194.56    0.1045    
   198.10    0.9700E-01
   201.65    0.9228E-01
   205.19    0.8964E-01
   208.74    0.8871E-01
   212.28    0.8935E-01
   215.82    0.9161E-01
   219.37    0.9571E-01
   222.91    0.1021    
   226.46    0.1117    
   230.00    0.1256    
   233.54    0.1462    
   237.09    0.1765    
   240.63    0.2205    
   244.18    0.2768    
   247.72    0.3263    
   251.26    0.3415    
   254.81    0.3347    
   258.35    0.3424    
   261.90    0.3855    
   265.44    0.4768    
   268.98    0.6299    
   272.53    0.8409    
   276.07     1.025    
   279.62     1.020    
   283.16    0.8257    
   286.70    0.6021    
   290.25    0.4326    
   293.79    0.3186    
   297.34    0.2433    
   300.88    0.1928    
   304.42    0.1584    
   307.97    0.1349    
   311.51    0.1193    
   315.06    0.1096    
   318.60    0.1023    
   322.14    0.9302E-01
   325.69    0.8135E-01
   329.23    0.7045E-01
   332.78    0.6179E-01
   336.32    0.5514E-01
   339.86    0.4995E-01
   343.41    0.4580E-01
   346.95    0.4240E-01
   350.50    0.3956E-01
   354.04    0.3716E-01
   357.58    0.3509E-01
   361.13    0.3330E-01
   364.67    0.3173E-01
   368.22    0.3036E-01
   371.76    0.2915E-01
   375.31    0.2809E-01
   378.85    0.2715E-01
   382.39    0.2634E-01
   385.94    0.2565E-01
   389.48    0.2508E-01
   393.03    0.2464E-01
   396.57    0.2436E-01
   400.11    0.2430E-01
   403.66    0.2454E-01
   407.20    0.2519E-01
   410.75    0.2629E-01
   414.29    0.2739E-01
   417.83    0.2740E-01
   421.38    0.2600E-01
   424.92    0.2425E-01
   428.47    0.2286E-01
   432.01    0.2193E-01
   435.55    0.2135E-01
   439.10    0.2103E-01
   442.64    0.2091E-01
   446.19    0.2098E-01
   449.73    0.2126E-01
   453.27    0.2178E-01
   456.82    0.2265E-01
   460.36    0.2402E-01
   463.91    0.2614E-01
   467.45    0.2935E-01
   470.99    0.3370E-01
   474.54    0.3786E-01
   478.08    0.3872E-01
   481.63    0.3572E-01
   485.17    0.3193E-01
   488.71    0.2922E-01
   492.26    0.2775E-01
   495.80    0.2725E-01
   499.35    0.2749E-01
   502.89    0.2837E-01
   506.43    0.2988E-01
   509.98    0.3211E-01
   513.52    0.3527E-01
   517.07    0.3971E-01
   520.61    0.4600E-01
   524.15    0.5505E-01
   527.70    0.6816E-01
   531.24    0.8642E-01
   534.79    0.1089    
   538.33    0.1335    
   541.87    0.1627    
   545.42    0.1949    
   548.96    0.2075    
   552.51    0.1838    
   556.05    0.1448    
   559.59    0.1130    
   563.14    0.9273E-01
   566.68    0.8206E-01
   570.23    0.7889E-01
   573.77    0.8258E-01
   577.31    0.9398E-01
   580.86    0.1149    
   584.40    0.1452    
   587.95    0.1733    
   591.49    0.1750    
   595.03    0.1469    
   598.58    0.1130    
   602.12    0.8712E-01
   605.67    0.6993E-01
   609.21    0.5901E-01
   612.75    0.5224E-01
   616.30    0.4836E-01
   619.84    0.4665E-01
   623.39    0.4675E-01
   626.93    0.4820E-01
   630.47    0.5000E-01
   634.02    0.5166E-01
   637.56    0.5432E-01
   641.11    0.5948E-01
   644.65    0.6832E-01
   648.19    0.8203E-01
   651.74    0.1005    
   655.28    0.1177    
   658.83    0.1227    
   662.37    0.1162    
   665.91    0.1104    
   669.46    0.1120    
   673.00    0.1226    
   676.55    0.1438    
   680.09    0.1789    
   683.63    0.2348    
   687.18    0.3211    
   690.72    0.4428    
   694.27    0.5700    
   697.81    0.6116    
   701.35    0.5235    
   704.90    0.3892    
   708.44    0.2788    
   711.99    0.2032    
   715.53    0.1534    
   719.07    0.1201    
   722.62    0.9743E-01
   726.16    0.8148E-01
   729.71    0.7003E-01
   733.25    0.6167E-01
   736.79    0.5551E-01
   740.34    0.5097E-01
   743.88    0.4766E-01
   747.43    0.4534E-01
   750.97    0.4384E-01
   754.51    0.4306E-01
   758.06    0.4294E-01
   761.60    0.4348E-01
   765.15    0.4470E-01
   768.69    0.4667E-01
   772.24    0.4952E-01
   775.78    0.5344E-01
   779.32    0.5872E-01
   782.87    0.6577E-01
   786.41    0.7526E-01
   789.96    0.8815E-01
   793.50    0.1060    
   797.04    0.1312    
   800.59    0.1680    
   804.13    0.2228    
   807.68    0.3060    
   811.22    0.4296    
   814.76    0.5898    
   818.31    0.7203    
   821.85    0.7067    
   825.40    0.5631    
   828.94    0.4060    
   832.48    0.2888    
   836.03    0.2103    
   839.57    0.1584    
   843.12    0.1232    
   846.66    0.9872E-01
   850.20    0.8113E-01
   853.75    0.6814E-01
   857.29    0.5831E-01
   860.84    0.5071E-01
   864.38    0.4472E-01
   867.92    0.3993E-01
   871.47    0.3602E-01
   875.01    0.3281E-01
   878.56    0.3013E-01
   882.10    0.2788E-01
   885.64    0.2596E-01
   889.19    0.2433E-01
   892.73    0.2291E-01
   896.28    0.2169E-01
   899.82    0.2061E-01
   903.36    0.1967E-01
   906.91    0.1885E-01
   910.45    0.1811E-01
   914.00    0.1746E-01
   917.54    0.1688E-01
   921.08    0.1635E-01
   924.63    0.1589E-01
   928.17    0.1547E-01
   931.72    0.1509E-01
   935.26    0.1475E-01
   938.80    0.1444E-01
   942.35    0.1416E-01
   945.89    0.1391E-01
   949.44    0.1368E-01
   952.98    0.1348E-01
   956.52    0.1330E-01
   960.07    0.1313E-01
   963.61    0.1298E-01
   967.16    0.1285E-01
   970.70    0.1273E-01
   974.24    0.1263E-01
   977.79    0.1254E-01
   981.33    0.1247E-01
   984.88    0.1241E-01
   988.42    0.1236E-01
   991.96    0.1232E-01
   995.51    0.1230E-01
   999.05    0.1229E-01
  1002.60    0.1230E-01
  1006.14    0.1232E-01
  1009.68    0.1236E-01
  1013.23    0.1242E-01
  1016.77    0.1251E-01
  1020.32    0.1262E-01
  1023.86    0.1277E-01
  1027.40    0.1297E-01
  1030.95    0.1322E-01
  1034.49    0.1356E-01
  1038.04    0.1402E-01
  1041.58    0.1465E-01
  1045.12    0.1553E-01
  1048.67    0.1682E-01
  1052.21    0.1873E-01
  1055.76    0.2162E-01
  1059.30    0.2573E-01
  1062.84    0.3044E-01
  1066.39    0.3289E-01
  1069.93    0.3071E-01
  1073.48    0.2616E-01
  1077.02    0.2213E-01
  1080.56    0.1934E-01
  1084.11    0.1753E-01
  1087.65    0.1637E-01
  1091.20    0.1561E-01
  1094.74    0.1511E-01
  1098.28    0.1479E-01
  1101.83    0.1459E-01
  1105.37    0.1447E-01
  1108.92    0.1442E-01
  1112.46    0.1443E-01
  1116.00    0.1447E-01
  1119.55    0.1454E-01
  1123.09    0.1464E-01
  1126.64    0.1477E-01
  1130.18    0.1492E-01
  1133.72    0.1510E-01
  1137.27    0.1529E-01
  1140.81    0.1551E-01
  1144.36    0.1575E-01
  1147.90    0.1602E-01
  1151.44    0.1630E-01
  1154.99    0.1662E-01
  1158.53    0.1695E-01
  1162.08    0.1732E-01
  1165.62    0.1772E-01
  1169.16    0.1816E-01
  1172.71    0.1863E-01
  1176.25    0.1914E-01
  1179.80    0.1970E-01
  1183.34    0.2031E-01
  1186.89    0.2098E-01
  1190.43    0.2172E-01
  1193.97    0.2253E-01
  1197.52    0.2342E-01
  1201.06    0.2441E-01
  1204.61    0.2551E-01
  1208.15    0.2674E-01
  1211.69    0.2812E-01
  1215.24    0.2967E-01
  1218.78    0.3143E-01
  1222.33    0.3344E-01
  1225.87    0.3574E-01
  1229.41    0.3840E-01
  1232.96    0.4149E-01
  1236.50    0.4511E-01
  1240.05    0.4940E-01
  1243.59    0.5452E-01
  1247.13    0.6071E-01
  1250.68    0.6829E-01
  1254.22    0.7771E-01
  1257.77    0.8958E-01
  1261.31    0.1048    
  1264.85    0.1248    
  1268.40    0.1517    
  1271.94    0.1887    
  1275.49    0.2413    
  1279.03    0.3182    
  1282.57    0.4337    
  1286.12    0.6082    
  1289.66    0.8565    
  1293.21     1.133    
  1296.75     1.261    
  1300.29     1.111    
  1303.84    0.8319    
  1307.38    0.5901    
  1310.93    0.4220    
  1314.47    0.3109    
  1318.01    0.2369    
  1321.56    0.1862    
  1325.10    0.1505    
  1328.65    0.1245    
  1332.19    0.1052    
  1335.73    0.9051E-01
  1339.28    0.7908E-01
  1342.82    0.7005E-01
  1346.37    0.6280E-01
  1349.91    0.5691E-01
  1353.45    0.5207E-01
  1357.00    0.4805E-01
  1360.54    0.4467E-01
  1364.09    0.4183E-01
  1367.63    0.3940E-01
  1371.17    0.3733E-01
  1374.72    0.3555E-01
  1378.26    0.3401E-01
  1381.81    0.3268E-01
  1385.35    0.3152E-01
  1388.89    0.3051E-01
  1392.44    0.2962E-01
  1395.98    0.2885E-01
  1399.53    0.2817E-01
  1403.07    0.2758E-01
  1406.61    0.2707E-01
  1410.16    0.2661E-01
  1413.70    0.2622E-01
  1417.25    0.2588E-01
  1420.79    0.2559E-01
  1424.33    0.2534E-01
  1427.88    0.2513E-01
  1431.42    0.2496E-01
  1434.97    0.2481E-01
  1438.51    0.2470E-01
  1442.05    0.2462E-01
  1445.60    0.2457E-01
  1449.14    0.2454E-01
  1452.69    0.2453E-01
  1456.23    0.2455E-01
  1459.77    0.2460E-01
  1463.32    0.2468E-01
  1466.86    0.2479E-01
  1470.41    0.2494E-01
  1473.95    0.2514E-01
  1477.49    0.2541E-01
  1481.04    0.2578E-01
  1484.58    0.2630E-01
  1488.13    0.2701E-01
  1491.67    0.2785E-01
  1495.21    0.2841E-01
  1498.76    0.2831E-01
  1502.30    0.2781E-01
  1505.85    0.2738E-01
  1509.39    0.2713E-01
  1512.93    0.2705E-01
  1516.48    0.2708E-01
  1520.02    0.2718E-01
  1523.57    0.2732E-01
  1527.11    0.2751E-01
  1530.65    0.2772E-01
  1534.20    0.2796E-01
  1537.74    0.2821E-01
  1541.29    0.2848E-01
  1544.83    0.2877E-01
  1548.37    0.2907E-01
  1551.92    0.2938E-01
  1555.46    0.2971E-01
  1559.01    0.3005E-01
  1562.55    0.3040E-01
  1566.09    0.3077E-01
  1569.64    0.3114E-01
  1573.18    0.3153E-01
  1576.73    0.3193E-01
  1580.27    0.3235E-01
  1583.82    0.3278E-01
  1587.36    0.3322E-01
  1590.90    0.3367E-01
  1594.45    0.3414E-01
  1597.99    0.3462E-01
  1601.54    0.3512E-01
  1605.08    0.3563E-01
  1608.62    0.3615E-01
  1612.17    0.3670E-01
  1615.71    0.3725E-01
  1619.26    0.3783E-01
  1622.80    0.3842E-01
  1626.34    0.3903E-01
  1629.89    0.3965E-01
  1633.43    0.4030E-01
  1636.98    0.4096E-01
  1640.52    0.4164E-01
  1644.06    0.4235E-01
  1647.61    0.4307E-01
  1651.15    0.4382E-01
  1654.70    0.4458E-01
  1658.24    0.4538E-01
  1661.78    0.4619E-01
  1665.33    0.4703E-01
  1668.87    0.4790E-01
  1672.42    0.4880E-01
  1675.96    0.4972E-01
  1679.50    0.5067E-01
  1683.05    0.5165E-01
  1686.59    0.5267E-01
  1690.14    0.5371E-01
  1693.68    0.5479E-01
  1697.22    0.5591E-01
  1700.77    0.5706E-01
  1704.31    0.5825E-01
  1707.86    0.5949E-01
  1711.40    0.6076E-01
  1714.94    0.6208E-01
  1718.49    0.6345E-01
  1722.03    0.6486E-01
  1725.58    0.6632E-01
  1729.12    0.6784E-01
  1732.66    0.6941E-01
  1736.21    0.7104E-01
  1739.75    0.7273E-01
  1743.30    0.7449E-01
  1746.84    0.7631E-01
  1750.38    0.7820E-01
  1753.93    0.8017E-01
  1757.47    0.8221E-01
  1761.02    0.8434E-01
  1764.56    0.8655E-01
  1768.10    0.8886E-01
  1771.65    0.9126E-01
  1775.19    0.9376E-01
  1778.74    0.9637E-01
  1782.28    0.9909E-01
  1785.82    0.1019    
  1789.37    0.1049    
  1792.91    0.1080    
  1796.46    0.1113    
  1800.00    0.1147    
  1803.54    0.1182    
  1807.09    0.1220    
  1810.63    0.1259    
  1814.18    0.1300    
  1817.72    0.1344    
  1821.26    0.1389    
  1824.81    0.1437    
  1828.35    0.1488    
  1831.90    0.1541    
  1835.44    0.1597    
  1838.98    0.1657    
  1842.53    0.1720    
  1846.07    0.1786    
  1849.62    0.1857    
  1853.16    0.1932    
  1856.70    0.2012    
  1860.25    0.2097    
  1863.79    0.2188    
  1867.34    0.2284    
  1870.88    0.2388    
  1874.42    0.2499    
  1877.97    0.2617    
  1881.51    0.2745    
  1885.06    0.2883    
  1888.60    0.3031    
  1892.14    0.3192    
  1895.69    0.3366    
  1899.23    0.3555    
  1902.78    0.3761    
  1906.32    0.3986    
  1909.86    0.4232    
  1913.41    0.4504    
  1916.95    0.4804    
  1920.50    0.5136    
  1924.04    0.5507    
  1927.58    0.5923    
  1931.13    0.6392    
  1934.67    0.6925    
  1938.22    0.7537    
  1941.76    0.8246    
  1945.30    0.9080    
  1948.85     1.008    
  1952.39     1.129    
  1955.94     1.282    
  1959.48     1.480    
  1963.02     1.742    
  1966.57     2.092    
  1970.11     2.517    
  1973.66     2.896    
  1977.20     3.062    
  1980.74     3.095    
  1984.29     3.191    
  1987.83     3.439    
  1991.38     3.858    
  1994.92     4.471    
  1998.47     5.326    
  2002.01     6.510    
  2005.55     8.168    
  2009.10     10.54    
  2012.64     14.03    
  2016.19     19.29    
  2019.73     27.24    
  2023.27     38.54    
  2026.82     51.11    
  2030.36     56.86    
  2033.91     49.96    
  2037.45     37.24    
  2040.99     26.26    
  2044.54     18.62    
  2048.08     13.57    
  2051.63     10.20    
  2055.17     7.891    
  2058.71     6.263    
  2062.26     5.080    
  2065.80     4.198    
  2069.35     3.526    
  2072.89     3.004    
  2076.43     2.591    
  2079.98     2.260    
  2083.52     1.992    
  2087.07     1.774    
  2090.61     1.595    
  2094.15     1.450    
  2097.70     1.336    
  2101.24     1.251    
  2104.79     1.196    
  2108.33     1.169    
  2111.87     1.146    
  2115.42     1.081    
  2118.96    0.9741    
  2122.51    0.8668    
  2126.05    0.7798    
  2129.59    0.7129    
  2133.14    0.6611    
  2136.68    0.6203    
  2140.23    0.5881    
  2143.77    0.5628    
  2147.31    0.5438    
  2150.86    0.5307    
  2154.40    0.5240    
  2157.95    0.5243    
  2161.49    0.5334    
  2165.03    0.5535    
  2168.58    0.5862    
  2172.12    0.6287    
  2175.67    0.6755    
  2179.21    0.7329    
  2182.75    0.8094    
  2186.30    0.8982    
  2189.84     1.005    
  2193.39     1.171    
  2196.93     1.448    
  2200.47     1.895    
  2204.02     2.570    
  2207.56     3.423    
  2211.11     4.036    
  2214.65     3.828    
  2218.19     3.007    
  2221.74     2.181    
  2225.28     1.580    
  2228.83     1.178    
  2232.37    0.9092    
  2235.91    0.7256    
  2239.46    0.5959    
  2243.00    0.5014    
  2246.55    0.4306    
  2250.09    0.3760    
  2253.63    0.3330    
  2257.18    0.2985    
  2260.72    0.2702    
  2264.27    0.2468    
  2267.81    0.2270    
  2271.35    0.2101    
  2274.90    0.1956    
  2278.44    0.1829    
  2281.99    0.1718    
  2285.53    0.1620    
  2289.07    0.1532    
  2292.62    0.1453    
  2296.16    0.1382    
  2299.71    0.1317    
  2303.25    0.1258    
  2306.79    0.1204    
  2310.34    0.1154    
  2313.88    0.1108    
  2317.43    0.1066    
  2320.97    0.1026    
  2324.51    0.9890E-01
  2328.06    0.9545E-01
  2331.60    0.9221E-01
  2335.15    0.8917E-01
  2338.69    0.8631E-01
  2342.23    0.8361E-01
  2345.78    0.8106E-01
  2349.32    0.7865E-01
  2352.87    0.7636E-01
  2356.41    0.7419E-01
  2359.95    0.7212E-01
  2363.50    0.7015E-01
  2367.04    0.6828E-01
  2370.59    0.6649E-01
  2374.13    0.6477E-01
  2377.67    0.6314E-01
  2381.22    0.6157E-01
  2384.76    0.6007E-01
  2388.31    0.5862E-01
  2391.85    0.5724E-01
  2395.39    0.5591E-01
  2398.94    0.5463E-01
  2402.48    0.5340E-01
  2406.03    0.5221E-01
  2409.57    0.5107E-01
  2413.12    0.4997E-01
  2416.66    0.4890E-01
  2420.20    0.4788E-01
  2423.75    0.4689E-01
  2427.29    0.4593E-01
  2430.84    0.4500E-01
  2434.38    0.4410E-01
  2437.92    0.4323E-01
  2441.47    0.4239E-01
  2445.01    0.4158E-01
  2448.56    0.4079E-01
  2452.10    0.4002E-01
  2455.64    0.3928E-01
  2459.19    0.3856E-01
  2462.73    0.3786E-01
  2466.28    0.3718E-01
  2469.82    0.3651E-01
  2473.36    0.3587E-01
  2476.91    0.3525E-01
  2480.45    0.3464E-01
  2484.00    0.3405E-01
  2487.54    0.3347E-01
  2491.08    0.3291E-01
  2494.63    0.3237E-01
  2498.17    0.3184E-01
  2501.72    0.3132E-01
  2505.26    0.3081E-01
  2508.80    0.3032E-01
  2512.35    0.2984E-01
  2515.89    0.2937E-01
  2519.44    0.2892E-01
  2522.98    0.2847E-01
  2526.52    0.2804E-01
  2530.07    0.2761E-01
  2533.61    0.2720E-01
  2537.16    0.2679E-01
  2540.70    0.2640E-01
  2544.24    0.2601E-01
  2547.79    0.2563E-01
  2551.33    0.2526E-01
  2554.88    0.2490E-01
  2558.42    0.2455E-01
  2561.96    0.2420E-01
  2565.51    0.2387E-01
  2569.05    0.2354E-01
  2572.60    0.2321E-01
  2576.14    0.2290E-01
  2579.68    0.2259E-01
  2583.23    0.2228E-01
  2586.77    0.2198E-01
  2590.32    0.2169E-01
  2593.86    0.2141E-01
  2597.40    0.2113E-01
  2600.95    0.2085E-01
  2604.49    0.2059E-01
  2608.04    0.2032E-01
  2611.58    0.2007E-01
  2615.12    0.1981E-01
  2618.67    0.1956E-01
  2622.21    0.1932E-01
  2625.76    0.1908E-01
  2629.30    0.1885E-01
  2632.84    0.1862E-01
  2636.39    0.1839E-01
  2639.93    0.1817E-01
  2643.48    0.1795E-01
  2647.02    0.1774E-01
  2650.56    0.1753E-01
  2654.11    0.1733E-01
  2657.65    0.1712E-01
  2661.20    0.1693E-01
  2664.74    0.1673E-01
  2668.28    0.1654E-01
  2671.83    0.1635E-01
  2675.37    0.1617E-01
  2678.92    0.1599E-01
  2682.46    0.1581E-01
  2686.00    0.1563E-01
  2689.55    0.1546E-01
  2693.09    0.1529E-01
  2696.64    0.1512E-01
  2700.18    0.1496E-01
  2703.72    0.1480E-01
  2707.27    0.1464E-01
  2710.81    0.1448E-01
  2714.36    0.1433E-01
  2717.90    0.1418E-01
  2721.44    0.1403E-01
  2724.99    0.1389E-01
  2728.53    0.1374E-01
  2732.08    0.1360E-01
  2735.62    0.1346E-01
  2739.16    0.1332E-01
  2742.71    0.1319E-01
  2746.25    0.1306E-01
  2749.80    0.1293E-01
  2753.34    0.1280E-01
  2756.88    0.1267E-01
  2760.43    0.1255E-01
  2763.97    0.1242E-01
  2767.52    0.1230E-01
  2771.06    0.1218E-01
  2774.60    0.1206E-01
  2778.15    0.1195E-01
  2781.69    0.1183E-01
  2785.24    0.1172E-01
  2788.78    0.1161E-01
  2792.32    0.1150E-01
  2795.87    0.1139E-01
  2799.41    0.1129E-01
  2802.96    0.1118E-01
  2806.50    0.1108E-01
  2810.05    0.1098E-01
  2813.59    0.1088E-01
  2817.13    0.1078E-01
  2820.68    0.1068E-01
  2824.22    0.1059E-01
  2827.77    0.1049E-01
  2831.31    0.1040E-01
  2834.85    0.1030E-01
  2838.40    0.1021E-01
  2841.94    0.1012E-01
  2845.49    0.1004E-01
  2849.03    0.9948E-02
  2852.57    0.9862E-02
  2856.12    0.9777E-02
  2859.66    0.9693E-02
  2863.21    0.9610E-02
  2866.75    0.9528E-02
  2870.29    0.9447E-02
  2873.84    0.9368E-02
  2877.38    0.9289E-02
  2880.93    0.9212E-02
  2884.47    0.9135E-02
  2888.01    0.9059E-02
  2891.56    0.8985E-02
  2895.10    0.8911E-02
  2898.65    0.8838E-02
  2902.19    0.8766E-02
  2905.73    0.8696E-02
  2909.28    0.8625E-02
  2912.82    0.8556E-02
  2916.37    0.8488E-02
  2919.91    0.8420E-02
  2923.45    0.8354E-02
  2927.00    0.8288E-02
  2930.54    0.8223E-02
  2934.09    0.8159E-02
  2937.63    0.8095E-02
  2941.17    0.8032E-02
  2944.72    0.7970E-02
  2948.26    0.7909E-02
  2951.81    0.7849E-02
  2955.35    0.7789E-02
  2958.89    0.7730E-02
  2962.44    0.7671E-02
  2965.98    0.7614E-02
  2969.53    0.7557E-02
  2973.07    0.7500E-02
  2976.61    0.7445E-02
  2980.16    0.7390E-02
  2983.70    0.7335E-02
  2987.25    0.7281E-02
  2990.79    0.7228E-02
  2994.33    0.7176E-02
  2997.88    0.7124E-02
  3001.42    0.7072E-02
  3004.97    0.7021E-02
  3008.51    0.6971E-02
  3012.05    0.6922E-02
  3015.60    0.6873E-02
  3019.14    0.6824E-02
  3022.69    0.6776E-02
  3026.23    0.6729E-02
  3029.77    0.6682E-02
  3033.32    0.6635E-02
  3036.86    0.6589E-02
  3040.41    0.6544E-02
  3043.95    0.6499E-02
  3047.49    0.6455E-02
  3051.04    0.6411E-02
  3054.58    0.6367E-02
  3058.13    0.6325E-02
  3061.67    0.6282E-02
  3065.21    0.6240E-02
  3068.76    0.6199E-02
  3072.30    0.6158E-02
  3075.85    0.6117E-02
  3079.39    0.6077E-02
  3082.93    0.6037E-02
  3086.48    0.5998E-02
  3090.02    0.5959E-02
  3093.57    0.5920E-02
  3097.11    0.5882E-02
  3100.65    0.5845E-02
  3104.20    0.5808E-02
  3107.74    0.5771E-02
  3111.29    0.5734E-02
  3114.83    0.5698E-02
  3118.37    0.5663E-02
  3121.92    0.5628E-02
  3125.46    0.5593E-02
  3129.01    0.5558E-02
  3132.55    0.5524E-02
  3136.09    0.5491E-02
  3139.64    0.5458E-02
  3143.18    0.5425E-02
  3146.73    0.5392E-02
  3150.27    0.5360E-02
  3153.81    0.5328E-02
  3157.36    0.5297E-02
  3160.90    0.5266E-02
  3164.45    0.5235E-02
  3167.99    0.5205E-02
  3171.53    0.5175E-02
  3175.08    0.5145E-02
  3178.62    0.5116E-02
  3182.17    0.5087E-02
  3185.71    0.5059E-02
  3189.25    0.5031E-02
  3192.80    0.5003E-02
  3196.34    0.4976E-02
  3199.89    0.4949E-02
  3203.43    0.4922E-02
  3206.97    0.4896E-02
  3210.52    0.4870E-02
  3214.06    0.4845E-02
  3217.61    0.4820E-02
  3221.15    0.4795E-02
  3224.70    0.4771E-02
  3228.24    0.4747E-02
  3231.78    0.4724E-02
  3235.33    0.4701E-02
  3238.87    0.4679E-02
  3242.42    0.4657E-02
  3245.96    0.4635E-02
  3249.50    0.4614E-02
  3253.05    0.4593E-02
  3256.59    0.4573E-02
  3260.14    0.4554E-02
  3263.68    0.4535E-02
  3267.22    0.4517E-02
  3270.77    0.4499E-02
  3274.31    0.4482E-02
  3277.86    0.4466E-02
  3281.40    0.4450E-02
  3284.94    0.4435E-02
  3288.49    0.4422E-02
  3292.03    0.4409E-02
  3295.58    0.4397E-02
  3299.12    0.4386E-02
  3302.66    0.4376E-02
  3306.21    0.4367E-02
  3309.75    0.4360E-02
  3313.30    0.4354E-02
  3316.84    0.4350E-02
  3320.38    0.4348E-02
  3323.93    0.4347E-02
  3327.47    0.4349E-02
  3331.02    0.4354E-02
  3334.56    0.4361E-02
  3338.10    0.4372E-02
  3341.65    0.4386E-02
  3345.19    0.4405E-02
  3348.74    0.4428E-02
  3352.28    0.4457E-02
  3355.82    0.4492E-02
  3359.37    0.4536E-02
  3362.91    0.4588E-02
  3366.46    0.4651E-02
  3370.00    0.4728E-02
  3373.54    0.4820E-02
  3377.09    0.4933E-02
  3380.63    0.5070E-02
  3384.18    0.5238E-02
  3387.72    0.5445E-02
  3391.26    0.5705E-02
  3394.81    0.6032E-02
  3398.35    0.6451E-02
  3401.90    0.6996E-02
  3405.44    0.7721E-02
  3408.98    0.8705E-02
  3412.53    0.1008E-01
  3416.07    0.1204E-01
  3419.62    0.1493E-01
  3423.16    0.1922E-01
  3426.70    0.2529E-01
  3430.25    0.3263E-01
  3433.79    0.3931E-01
  3437.34    0.4408E-01
  3440.88    0.4493E-01
  3444.42    0.3915E-01
  3447.97    0.3013E-01
  3451.51    0.2237E-01
  3455.06    0.1693E-01
  3458.60    0.1330E-01
  3462.14    0.1085E-01
  3465.69    0.9161E-02
  3469.23    0.7953E-02
  3472.78    0.7064E-02
  3476.32    0.6392E-02
  3479.86    0.5873E-02
  3483.41    0.5463E-02
  3486.95    0.5133E-02
  3490.50    0.4863E-02
  3494.04    0.4640E-02
  3497.58    0.4451E-02
  3501.13    0.4291E-02
  3504.67    0.4154E-02
